run_id,condition,success,exp_stage,trial_id,trial_type,trial_index,time_elapsed,internal_node_id,hitId,workerId,assignmentId,a,tp_a,b,tp_b,c,tp_c,conditionmyown,cen_signal_contrast_stim,view_history,rt,response,stimulus,correct_response,correct_response_in_clockwise_or_counterclockwise,correct,slider_start,ctx_signal_contrast,cen_angle_in_degree,cen_signal_contrast_catchStim,confidence,recorded_at,ip,user_agent,device,browser,browser_version,platform,platform_version,source_code_version
22,3,true,pre-exp,fullscreen_starts,fullscreen,0,4402,0.0-0.0,3PKVGQTFJQLSZOM7OKJDU84QFXXYRA,A1YSYI926BBOHW,3PIWWX1FJS7OTV5OKHE36EZZVXXJJZ,FWIP4,FWIP4,3PIWWX1FJS7OTV5OKHE36EZZVXXJJZ,3PIWWX1FJS7OTV5OKHE36EZZVXXJJZ,338054,338054,3,0.06,"""","""","""","""","""","""","""","""","""","""","""","""","2021-12-31 04:15:26",73.189.186.35,"Mozilla/5.0 (Windows NT 10.0; Win64; x64) AppleWebKit/537.36 (KHTML, like Gecko) Chrome/94.0.4606.54 Safari/537.36 Edg/93.0.961.38",WebKit,Edge,93.0.961.38,Windows,10.0,ac0f2dffeffaa78d35a552e03d03f0a8
22,3,"""",pre-exp,instructionspage1,instructions,1,5711,0.0-1.0-0.0,3PKVGQTFJQLSZOM7OKJDU84QFXXYRA,A1YSYI926BBOHW,3PIWWX1FJS7OTV5OKHE36EZZVXXJJZ,FWIP4,FWIP4,3PIWWX1FJS7OTV5OKHE36EZZVXXJJZ,3PIWWX1FJS7OTV5OKHE36EZZVXXJJZ,338054,338054,3,0.06,"[{""page_index"":0,""viewing_time"":1305}]",1305.199999988079,"""","""","""","""","""","""","""","""","""","""","2021-12-31 04:15:26",73.189.186.35,"Mozilla/5.0 (Windows NT 10.0; Win64; x64) AppleWebKit/537.36 (KHTML, like Gecko) Chrome/94.0.4606.54 Safari/537.36 Edg/93.0.961.38",WebKit,Edge,93.0.961.38,Windows,10.0,ac0f2dffeffaa78d35a552e03d03f0a8
22,3,"""",pre-exp,instructions_block2,canvas-button-response,2,12559,0.0-2.0-0.0-0.0,3PKVGQTFJQLSZOM7OKJDU84QFXXYRA,A1YSYI926BBOHW,3PIWWX1FJS7OTV5OKHE36EZZVXXJJZ,FWIP4,FWIP4,3PIWWX1FJS7OTV5OKHE36EZZVXXJJZ,3PIWWX1FJS7OTV5OKHE36EZZVXXJJZ,338054,338054,3,0.06,"""",6750.800000011921,1,instructionStim1,1,Clockwise,true,"""","""","""","""","""","2021-12-31 04:15:26",73.189.186.35,"Mozilla/5.0 (Windows NT 10.0; Win64; x64) AppleWebKit/537.36 (KHTML, like Gecko) Chrome/94.0.4606.54 Safari/537.36 Edg/93.0.961.38",WebKit,Edge,93.0.961.38,Windows,10.0,ac0f2dffeffaa78d35a552e03d03f0a8
22,3,"""",pre-exp,instructions_block3,canvas-button-response,3,13729,0.0-3.0-0.0-0.0,3PKVGQTFJQLSZOM7OKJDU84QFXXYRA,A1YSYI926BBOHW,3PIWWX1FJS7OTV5OKHE36EZZVXXJJZ,FWIP4,FWIP4,3PIWWX1FJS7OTV5OKHE36EZZVXXJJZ,3PIWWX1FJS7OTV5OKHE36EZZVXXJJZ,338054,338054,3,0.06,"""",1114.1000000238419,0,instructionStim2,0,Counter-clockwise,true,"""","""","""","""","""","2021-12-31 04:15:26",73.189.186.35,"Mozilla/5.0 (Windows NT 10.0; Win64; x64) AppleWebKit/537.36 (KHTML, like Gecko) Chrome/94.0.4606.54 Safari/537.36 Edg/93.0.961.38",WebKit,Edge,93.0.961.38,Windows,10.0,ac0f2dffeffaa78d35a552e03d03f0a8
22,3,"""",pre-exp,instructions_block4,html-slider-response,4,17157,0.0-4.0,3PKVGQTFJQLSZOM7OKJDU84QFXXYRA,A1YSYI926BBOHW,3PIWWX1FJS7OTV5OKHE36EZZVXXJJZ,FWIP4,FWIP4,3PIWWX1FJS7OTV5OKHE36EZZVXXJJZ,3PIWWX1FJS7OTV5OKHE36EZZVXXJJZ,338054,338054,3,0.06,"""",3425.600000023842,91,"<div id=""message-div""><p>After you have made your clockwise/counter-clockwise choice, <br>you will be asked to rate how confident you are that you were correct in your clockwise/counter-clockwise choice using a slide bar.<br>Please try to use the entire range of the slider bar.<br>For example, feel free to move the slider to the leftmost location if you are extremely uncertain about your choice, and the rightmost location if you are extremely certain.</p></div>","""","""","""",50,"""","""","""","""","2021-12-31 04:15:26",73.189.186.35,"Mozilla/5.0 (Windows NT 10.0; Win64; x64) AppleWebKit/537.36 (KHTML, like Gecko) Chrome/94.0.4606.54 Safari/537.36 Edg/93.0.961.38",WebKit,Edge,93.0.961.38,Windows,10.0,ac0f2dffeffaa78d35a552e03d03f0a8
22,3,"""",pre-exp,instructionspage5,instructions,5,18791,0.0-5.0-0.0,3PKVGQTFJQLSZOM7OKJDU84QFXXYRA,A1YSYI926BBOHW,3PIWWX1FJS7OTV5OKHE36EZZVXXJJZ,FWIP4,FWIP4,3PIWWX1FJS7OTV5OKHE36EZZVXXJJZ,3PIWWX1FJS7OTV5OKHE36EZZVXXJJZ,338054,338054,3,0.06,"[{""page_index"":0,""viewing_time"":1633.800000011921}]",1634,"""","""","""","""","""","""","""","""","""","""","2021-12-31 04:15:26",73.189.186.35,"Mozilla/5.0 (Windows NT 10.0; Win64; x64) AppleWebKit/537.36 (KHTML, like Gecko) Chrome/94.0.4606.54 Safari/537.36 Edg/93.0.961.38",WebKit,Edge,93.0.961.38,Windows,10.0,ac0f2dffeffaa78d35a552e03d03f0a8
22,3,"""",pre-exp,repeat_instructions_conditionalpage5,html-button-response,6,20036,0.0-5.0-1.0-0.0,3PKVGQTFJQLSZOM7OKJDU84QFXXYRA,A1YSYI926BBOHW,3PIWWX1FJS7OTV5OKHE36EZZVXXJJZ,FWIP4,FWIP4,3PIWWX1FJS7OTV5OKHE36EZZVXXJJZ,3PIWWX1FJS7OTV5OKHE36EZZVXXJJZ,338054,338054,3,0.06,"""",1242.800000011921,0,"<div id=""message-div""><p>Please read this carefully. The instructions will be shown again now.</p><p>Click the ""Continue"" button to continue.</p></div>","""","""","""","""","""","""","""","""","2021-12-31 04:15:26",73.189.186.35,"Mozilla/5.0 (Windows NT 10.0; Win64; x64) AppleWebKit/537.36 (KHTML, like Gecko) Chrome/94.0.4606.54 Safari/537.36 Edg/93.0.961.38",WebKit,Edge,93.0.961.38,Windows,10.0,ac0f2dffeffaa78d35a552e03d03f0a8
22,3,"""",pre-exp,instructionspage5,instructions,7,21610,0.0-5.1-0.1,3PKVGQTFJQLSZOM7OKJDU84QFXXYRA,A1YSYI926BBOHW,3PIWWX1FJS7OTV5OKHE36EZZVXXJJZ,FWIP4,FWIP4,3PIWWX1FJS7OTV5OKHE36EZZVXXJJZ,3PIWWX1FJS7OTV5OKHE36EZZVXXJJZ,338054,338054,3,0.06,"[{""page_index"":0,""viewing_time"":1573.6000000238419}]",1573.800000011921,"""","""","""","""","""","""","""","""","""","""","2021-12-31 04:15:26",73.189.186.35,"Mozilla/5.0 (Windows NT 10.0; Win64; x64) AppleWebKit/537.36 (KHTML, like Gecko) Chrome/94.0.4606.54 Safari/537.36 Edg/93.0.961.38",WebKit,Edge,93.0.961.38,Windows,10.0,ac0f2dffeffaa78d35a552e03d03f0a8
22,3,"""",pre-exp,repeat_instructions_conditionalpage5,html-button-response,8,22609,0.0-5.1-1.1-0.1,3PKVGQTFJQLSZOM7OKJDU84QFXXYRA,A1YSYI926BBOHW,3PIWWX1FJS7OTV5OKHE36EZZVXXJJZ,FWIP4,FWIP4,3PIWWX1FJS7OTV5OKHE36EZZVXXJJZ,3PIWWX1FJS7OTV5OKHE36EZZVXXJJZ,338054,338054,3,0.06,"""",997.3999999761581,0,"<div id=""message-div""><p>Please read this carefully. The instructions will be shown again now.</p><p>Click the ""Continue"" button to continue.</p></div>","""","""","""","""","""","""","""","""","2021-12-31 04:15:26",73.189.186.35,"Mozilla/5.0 (Windows NT 10.0; Win64; x64) AppleWebKit/537.36 (KHTML, like Gecko) Chrome/94.0.4606.54 Safari/537.36 Edg/93.0.961.38",WebKit,Edge,93.0.961.38,Windows,10.0,ac0f2dffeffaa78d35a552e03d03f0a8
22,3,"""",pre-exp,instructionspage5,instructions,9,24213,0.0-5.2-0.2,3PKVGQTFJQLSZOM7OKJDU84QFXXYRA,A1YSYI926BBOHW,3PIWWX1FJS7OTV5OKHE36EZZVXXJJZ,FWIP4,FWIP4,3PIWWX1FJS7OTV5OKHE36EZZVXXJJZ,3PIWWX1FJS7OTV5OKHE36EZZVXXJJZ,338054,338054,3,0.06,"[{""page_index"":0,""viewing_time"":1604.0999999642372}]",1604.2999999523163,"""","""","""","""","""","""","""","""","""","""","2021-12-31 04:15:26",73.189.186.35,"Mozilla/5.0 (Windows NT 10.0; Win64; x64) AppleWebKit/537.36 (KHTML, like Gecko) Chrome/94.0.4606.54 Safari/537.36 Edg/93.0.961.38",WebKit,Edge,93.0.961.38,Windows,10.0,ac0f2dffeffaa78d35a552e03d03f0a8
22,3,"""",pre-exp,repeat_instructions_conditionalpage5,html-button-response,10,27117,0.0-5.2-1.2-0.2,3PKVGQTFJQLSZOM7OKJDU84QFXXYRA,A1YSYI926BBOHW,3PIWWX1FJS7OTV5OKHE36EZZVXXJJZ,FWIP4,FWIP4,3PIWWX1FJS7OTV5OKHE36EZZVXXJJZ,3PIWWX1FJS7OTV5OKHE36EZZVXXJJZ,338054,338054,3,0.06,"""",2901.600000023842,0,"<div id=""message-div""><p>Please read this carefully. The instructions will be shown again now.</p><p>Click the ""Continue"" button to continue.</p></div>","""","""","""","""","""","""","""","""","2021-12-31 04:15:26",73.189.186.35,"Mozilla/5.0 (Windows NT 10.0; Win64; x64) AppleWebKit/537.36 (KHTML, like Gecko) Chrome/94.0.4606.54 Safari/537.36 Edg/93.0.961.38",WebKit,Edge,93.0.961.38,Windows,10.0,ac0f2dffeffaa78d35a552e03d03f0a8
22,3,"""",pre-exp,instructionspage5,instructions,11,29674,0.0-5.3-0.3,3PKVGQTFJQLSZOM7OKJDU84QFXXYRA,A1YSYI926BBOHW,3PIWWX1FJS7OTV5OKHE36EZZVXXJJZ,FWIP4,FWIP4,3PIWWX1FJS7OTV5OKHE36EZZVXXJJZ,3PIWWX1FJS7OTV5OKHE36EZZVXXJJZ,338054,338054,3,0.06,"[{""page_index"":0,""viewing_time"":2556.600000023842}]",2556.800000011921,"""","""","""","""","""","""","""","""","""","""","2021-12-31 04:15:26",73.189.186.35,"Mozilla/5.0 (Windows NT 10.0; Win64; x64) AppleWebKit/537.36 (KHTML, like Gecko) Chrome/94.0.4606.54 Safari/537.36 Edg/93.0.961.38",WebKit,Edge,93.0.961.38,Windows,10.0,ac0f2dffeffaa78d35a552e03d03f0a8
22,3,"""",pre-exp,repeat_instructions_conditionalpage5,html-button-response,12,33634,0.0-5.3-1.3-0.3,3PKVGQTFJQLSZOM7OKJDU84QFXXYRA,A1YSYI926BBOHW,3PIWWX1FJS7OTV5OKHE36EZZVXXJJZ,FWIP4,FWIP4,3PIWWX1FJS7OTV5OKHE36EZZVXXJJZ,3PIWWX1FJS7OTV5OKHE36EZZVXXJJZ,338054,338054,3,0.06,"""",3957.099999964237,0,"<div id=""message-div""><p>Please read this carefully. The instructions will be shown again now.</p><p>Click the ""Continue"" button to continue.</p></div>","""","""","""","""","""","""","""","""","2021-12-31 04:15:26",73.189.186.35,"Mozilla/5.0 (Windows NT 10.0; Win64; x64) AppleWebKit/537.36 (KHTML, like Gecko) Chrome/94.0.4606.54 Safari/537.36 Edg/93.0.961.38",WebKit,Edge,93.0.961.38,Windows,10.0,ac0f2dffeffaa78d35a552e03d03f0a8
22,3,"""",pre-exp,instructionspage5,instructions,13,41638,0.0-5.4-0.4,3PKVGQTFJQLSZOM7OKJDU84QFXXYRA,A1YSYI926BBOHW,3PIWWX1FJS7OTV5OKHE36EZZVXXJJZ,FWIP4,FWIP4,3PIWWX1FJS7OTV5OKHE36EZZVXXJJZ,3PIWWX1FJS7OTV5OKHE36EZZVXXJJZ,338054,338054,3,0.06,"[{""page_index"":0,""viewing_time"":8003.199999988079}]",8003.300000011921,"""","""","""","""","""","""","""","""","""","""","2021-12-31 04:15:26",73.189.186.35,"Mozilla/5.0 (Windows NT 10.0; Win64; x64) AppleWebKit/537.36 (KHTML, like Gecko) Chrome/94.0.4606.54 Safari/537.36 Edg/93.0.961.38",WebKit,Edge,93.0.961.38,Windows,10.0,ac0f2dffeffaa78d35a552e03d03f0a8
22,3,"""",pre-exp,instructionspage6,instructions,14,54791,0.0-6.0-0.0,3PKVGQTFJQLSZOM7OKJDU84QFXXYRA,A1YSYI926BBOHW,3PIWWX1FJS7OTV5OKHE36EZZVXXJJZ,FWIP4,FWIP4,3PIWWX1FJS7OTV5OKHE36EZZVXXJJZ,3PIWWX1FJS7OTV5OKHE36EZZVXXJJZ,338054,338054,3,0.06,"[{""page_index"":0,""viewing_time"":13151.800000011921}]",13152.100000023842,"""","""","""","""","""","""","""","""","""","""","2021-12-31 04:15:26",73.189.186.35,"Mozilla/5.0 (Windows NT 10.0; Win64; x64) AppleWebKit/537.36 (KHTML, like Gecko) Chrome/94.0.4606.54 Safari/537.36 Edg/93.0.961.38",WebKit,Edge,93.0.961.38,Windows,10.0,ac0f2dffeffaa78d35a552e03d03f0a8
22,3,"""",pre-exp,instructionspage7,instructions,15,58144,0.0-7.0-0.0,3PKVGQTFJQLSZOM7OKJDU84QFXXYRA,A1YSYI926BBOHW,3PIWWX1FJS7OTV5OKHE36EZZVXXJJZ,FWIP4,FWIP4,3PIWWX1FJS7OTV5OKHE36EZZVXXJJZ,3PIWWX1FJS7OTV5OKHE36EZZVXXJJZ,338054,338054,3,0.06,"[{""page_index"":0,""viewing_time"":3352.199999988079}]",3352.5,"""","""","""","""","""","""","""","""","""","""","2021-12-31 04:15:26",73.189.186.35,"Mozilla/5.0 (Windows NT 10.0; Win64; x64) AppleWebKit/537.36 (KHTML, like Gecko) Chrome/94.0.4606.54 Safari/537.36 Edg/93.0.961.38",WebKit,Edge,93.0.961.38,Windows,10.0,ac0f2dffeffaa78d35a552e03d03f0a8
22,3,"""",pre-exp,instructionspage8,instructions,16,59223,0.0-8.0-0.0,3PKVGQTFJQLSZOM7OKJDU84QFXXYRA,A1YSYI926BBOHW,3PIWWX1FJS7OTV5OKHE36EZZVXXJJZ,FWIP4,FWIP4,3PIWWX1FJS7OTV5OKHE36EZZVXXJJZ,3PIWWX1FJS7OTV5OKHE36EZZVXXJJZ,338054,338054,3,0.06,"[{""page_index"":0,""viewing_time"":1078}]",1078.300000011921,"""","""","""","""","""","""","""","""","""","""","2021-12-31 04:15:26",73.189.186.35,"Mozilla/5.0 (Windows NT 10.0; Win64; x64) AppleWebKit/537.36 (KHTML, like Gecko) Chrome/94.0.4606.54 Safari/537.36 Edg/93.0.961.38",WebKit,Edge,93.0.961.38,Windows,10.0,ac0f2dffeffaa78d35a552e03d03f0a8
22,3,"""",practice_procedure,fixation,html-keyboard-response,17,59725,0.0-9.0-0.0-0.0,3PKVGQTFJQLSZOM7OKJDU84QFXXYRA,A1YSYI926BBOHW,3PIWWX1FJS7OTV5OKHE36EZZVXXJJZ,FWIP4,FWIP4,3PIWWX1FJS7OTV5OKHE36EZZVXXJJZ,3PIWWX1FJS7OTV5OKHE36EZZVXXJJZ,338054,338054,3,0.06,"""",null,null,"<div class = fixationbox><div class = fixation>+</div></div>","""","""","""","""","""","""","""","""","2021-12-31 04:15:26",73.189.186.35,"Mozilla/5.0 (Windows NT 10.0; Win64; x64) AppleWebKit/537.36 (KHTML, like Gecko) Chrome/94.0.4606.54 Safari/537.36 Edg/93.0.961.38",WebKit,Edge,93.0.961.38,Windows,10.0,ac0f2dffeffaa78d35a552e03d03f0a8
22,3,"""",practice_procedure,stim_practice,canvas-button-response,18,60859,0.0-9.0-0.0-1.0,3PKVGQTFJQLSZOM7OKJDU84QFXXYRA,A1YSYI926BBOHW,3PIWWX1FJS7OTV5OKHE36EZZVXXJJZ,FWIP4,FWIP4,3PIWWX1FJS7OTV5OKHE36EZZVXXJJZ,3PIWWX1FJS7OTV5OKHE36EZZVXXJJZ,338054,338054,3,0.06,"""",1032.300000011921,0,practiceStim4,0,Counter-clockwise,true,"""",0.3,120,0.99,"""","2021-12-31 04:15:26",73.189.186.35,"Mozilla/5.0 (Windows NT 10.0; Win64; x64) AppleWebKit/537.36 (KHTML, like Gecko) Chrome/94.0.4606.54 Safari/537.36 Edg/93.0.961.38",WebKit,Edge,93.0.961.38,Windows,10.0,ac0f2dffeffaa78d35a552e03d03f0a8
22,3,"""",practice_procedure,confidence_rating,html-slider-response,19,64532,0.0-9.0-0.0-2.0,3PKVGQTFJQLSZOM7OKJDU84QFXXYRA,A1YSYI926BBOHW,3PIWWX1FJS7OTV5OKHE36EZZVXXJJZ,FWIP4,FWIP4,3PIWWX1FJS7OTV5OKHE36EZZVXXJJZ,3PIWWX1FJS7OTV5OKHE36EZZVXXJJZ,338054,338054,3,0.06,"""",3672,94,"<div id=""message-div""><p>How confident are you that your clockwise/counter-clockwise response just now was accurate? Please rate your confidence on the slider bar below.</p></div>","""","""","""",50,"""","""","""",94,"2021-12-31 04:15:26",73.189.186.35,"Mozilla/5.0 (Windows NT 10.0; Win64; x64) AppleWebKit/537.36 (KHTML, like Gecko) Chrome/94.0.4606.54 Safari/537.36 Edg/93.0.961.38",WebKit,Edge,93.0.961.38,Windows,10.0,ac0f2dffeffaa78d35a552e03d03f0a8
22,3,"""",practice_procedure,fixation,html-keyboard-response,20,65037,0.0-9.0-0.0-0.1,3PKVGQTFJQLSZOM7OKJDU84QFXXYRA,A1YSYI926BBOHW,3PIWWX1FJS7OTV5OKHE36EZZVXXJJZ,FWIP4,FWIP4,3PIWWX1FJS7OTV5OKHE36EZZVXXJJZ,3PIWWX1FJS7OTV5OKHE36EZZVXXJJZ,338054,338054,3,0.06,"""",null,null,"<div class = fixationbox><div class = fixation>+</div></div>","""","""","""","""","""","""","""","""","2021-12-31 04:15:26",73.189.186.35,"Mozilla/5.0 (Windows NT 10.0; Win64; x64) AppleWebKit/537.36 (KHTML, like Gecko) Chrome/94.0.4606.54 Safari/537.36 Edg/93.0.961.38",WebKit,Edge,93.0.961.38,Windows,10.0,ac0f2dffeffaa78d35a552e03d03f0a8
22,3,"""",practice_procedure,stim_practice,canvas-button-response,21,66281,0.0-9.0-0.0-1.1,3PKVGQTFJQLSZOM7OKJDU84QFXXYRA,A1YSYI926BBOHW,3PIWWX1FJS7OTV5OKHE36EZZVXXJJZ,FWIP4,FWIP4,3PIWWX1FJS7OTV5OKHE36EZZVXXJJZ,3PIWWX1FJS7OTV5OKHE36EZZVXXJJZ,338054,338054,3,0.06,"""",1170.8999999761581,0,practiceStim2,0,Counter-clockwise,true,"""",0.01,120,0.99,"""","2021-12-31 04:15:26",73.189.186.35,"Mozilla/5.0 (Windows NT 10.0; Win64; x64) AppleWebKit/537.36 (KHTML, like Gecko) Chrome/94.0.4606.54 Safari/537.36 Edg/93.0.961.38",WebKit,Edge,93.0.961.38,Windows,10.0,ac0f2dffeffaa78d35a552e03d03f0a8
22,3,"""",practice_procedure,confidence_rating,html-slider-response,22,68377,0.0-9.0-0.0-2.1,3PKVGQTFJQLSZOM7OKJDU84QFXXYRA,A1YSYI926BBOHW,3PIWWX1FJS7OTV5OKHE36EZZVXXJJZ,FWIP4,FWIP4,3PIWWX1FJS7OTV5OKHE36EZZVXXJJZ,3PIWWX1FJS7OTV5OKHE36EZZVXXJJZ,338054,338054,3,0.06,"""",2094.899999976158,99,"<div id=""message-div""><p>How confident are you that your clockwise/counter-clockwise response just now was accurate? Please rate your confidence on the slider bar below.</p></div>","""","""","""",50,"""","""","""",99,"2021-12-31 04:15:26",73.189.186.35,"Mozilla/5.0 (Windows NT 10.0; Win64; x64) AppleWebKit/537.36 (KHTML, like Gecko) Chrome/94.0.4606.54 Safari/537.36 Edg/93.0.961.38",WebKit,Edge,93.0.961.38,Windows,10.0,ac0f2dffeffaa78d35a552e03d03f0a8
22,3,"""",practice_procedure,fixation,html-keyboard-response,23,68879,0.0-9.0-0.0-0.2,3PKVGQTFJQLSZOM7OKJDU84QFXXYRA,A1YSYI926BBOHW,3PIWWX1FJS7OTV5OKHE36EZZVXXJJZ,FWIP4,FWIP4,3PIWWX1FJS7OTV5OKHE36EZZVXXJJZ,3PIWWX1FJS7OTV5OKHE36EZZVXXJJZ,338054,338054,3,0.06,"""",null,null,"<div class = fixationbox><div class = fixation>+</div></div>","""","""","""","""","""","""","""","""","2021-12-31 04:15:26",73.189.186.35,"Mozilla/5.0 (Windows NT 10.0; Win64; x64) AppleWebKit/537.36 (KHTML, like Gecko) Chrome/94.0.4606.54 Safari/537.36 Edg/93.0.961.38",WebKit,Edge,93.0.961.38,Windows,10.0,ac0f2dffeffaa78d35a552e03d03f0a8
22,3,"""",practice_procedure,stim_practice,canvas-button-response,24,71141,0.0-9.0-0.0-1.2,3PKVGQTFJQLSZOM7OKJDU84QFXXYRA,A1YSYI926BBOHW,3PIWWX1FJS7OTV5OKHE36EZZVXXJJZ,FWIP4,FWIP4,3PIWWX1FJS7OTV5OKHE36EZZVXXJJZ,3PIWWX1FJS7OTV5OKHE36EZZVXXJJZ,338054,338054,3,0.06,"""",2160.399999976158,0,practiceStim2,0,Counter-clockwise,true,"""",0.01,120,0.99,"""","2021-12-31 04:15:26",73.189.186.35,"Mozilla/5.0 (Windows NT 10.0; Win64; x64) AppleWebKit/537.36 (KHTML, like Gecko) Chrome/94.0.4606.54 Safari/537.36 Edg/93.0.961.38",WebKit,Edge,93.0.961.38,Windows,10.0,ac0f2dffeffaa78d35a552e03d03f0a8
22,3,"""",practice_procedure,confidence_rating,html-slider-response,25,74105,0.0-9.0-0.0-2.2,3PKVGQTFJQLSZOM7OKJDU84QFXXYRA,A1YSYI926BBOHW,3PIWWX1FJS7OTV5OKHE36EZZVXXJJZ,FWIP4,FWIP4,3PIWWX1FJS7OTV5OKHE36EZZVXXJJZ,3PIWWX1FJS7OTV5OKHE36EZZVXXJJZ,338054,338054,3,0.06,"""",2961.800000011921,100,"<div id=""message-div""><p>How confident are you that your clockwise/counter-clockwise response just now was accurate? Please rate your confidence on the slider bar below.</p></div>","""","""","""",50,"""","""","""",100,"2021-12-31 04:15:26",73.189.186.35,"Mozilla/5.0 (Windows NT 10.0; Win64; x64) AppleWebKit/537.36 (KHTML, like Gecko) Chrome/94.0.4606.54 Safari/537.36 Edg/93.0.961.38",WebKit,Edge,93.0.961.38,Windows,10.0,ac0f2dffeffaa78d35a552e03d03f0a8
22,3,"""",practice_procedure,fixation,html-keyboard-response,26,74607,0.0-9.0-0.0-0.3,3PKVGQTFJQLSZOM7OKJDU84QFXXYRA,A1YSYI926BBOHW,3PIWWX1FJS7OTV5OKHE36EZZVXXJJZ,FWIP4,FWIP4,3PIWWX1FJS7OTV5OKHE36EZZVXXJJZ,3PIWWX1FJS7OTV5OKHE36EZZVXXJJZ,338054,338054,3,0.06,"""",null,null,"<div class = fixationbox><div class = fixation>+</div></div>","""","""","""","""","""","""","""","""","2021-12-31 04:15:26",73.189.186.35,"Mozilla/5.0 (Windows NT 10.0; Win64; x64) AppleWebKit/537.36 (KHTML, like Gecko) Chrome/94.0.4606.54 Safari/537.36 Edg/93.0.961.38",WebKit,Edge,93.0.961.38,Windows,10.0,ac0f2dffeffaa78d35a552e03d03f0a8
22,3,"""",practice_procedure,stim_practice,canvas-button-response,27,75784,0.0-9.0-0.0-1.3,3PKVGQTFJQLSZOM7OKJDU84QFXXYRA,A1YSYI926BBOHW,3PIWWX1FJS7OTV5OKHE36EZZVXXJJZ,FWIP4,FWIP4,3PIWWX1FJS7OTV5OKHE36EZZVXXJJZ,3PIWWX1FJS7OTV5OKHE36EZZVXXJJZ,338054,338054,3,0.06,"""",1143.699999988079,1,practiceStim3,1,Clockwise,true,"""",0.3,60,0.99,"""","2021-12-31 04:15:26",73.189.186.35,"Mozilla/5.0 (Windows NT 10.0; Win64; x64) AppleWebKit/537.36 (KHTML, like Gecko) Chrome/94.0.4606.54 Safari/537.36 Edg/93.0.961.38",WebKit,Edge,93.0.961.38,Windows,10.0,ac0f2dffeffaa78d35a552e03d03f0a8
22,3,"""",practice_procedure,confidence_rating,html-slider-response,28,77710,0.0-9.0-0.0-2.3,3PKVGQTFJQLSZOM7OKJDU84QFXXYRA,A1YSYI926BBOHW,3PIWWX1FJS7OTV5OKHE36EZZVXXJJZ,FWIP4,FWIP4,3PIWWX1FJS7OTV5OKHE36EZZVXXJJZ,3PIWWX1FJS7OTV5OKHE36EZZVXXJJZ,338054,338054,3,0.06,"""",1924.6000000238419,99,"<div id=""message-div""><p>How confident are you that your clockwise/counter-clockwise response just now was accurate? Please rate your confidence on the slider bar below.</p></div>","""","""","""",50,"""","""","""",99,"2021-12-31 04:15:26",73.189.186.35,"Mozilla/5.0 (Windows NT 10.0; Win64; x64) AppleWebKit/537.36 (KHTML, like Gecko) Chrome/94.0.4606.54 Safari/537.36 Edg/93.0.961.38",WebKit,Edge,93.0.961.38,Windows,10.0,ac0f2dffeffaa78d35a552e03d03f0a8
22,3,"""",practice_procedure,fixation,html-keyboard-response,29,78216,0.0-9.0-0.0-0.4,3PKVGQTFJQLSZOM7OKJDU84QFXXYRA,A1YSYI926BBOHW,3PIWWX1FJS7OTV5OKHE36EZZVXXJJZ,FWIP4,FWIP4,3PIWWX1FJS7OTV5OKHE36EZZVXXJJZ,3PIWWX1FJS7OTV5OKHE36EZZVXXJJZ,338054,338054,3,0.06,"""",null,null,"<div class = fixationbox><div class = fixation>+</div></div>","""","""","""","""","""","""","""","""","2021-12-31 04:15:26",73.189.186.35,"Mozilla/5.0 (Windows NT 10.0; Win64; x64) AppleWebKit/537.36 (KHTML, like Gecko) Chrome/94.0.4606.54 Safari/537.36 Edg/93.0.961.38",WebKit,Edge,93.0.961.38,Windows,10.0,ac0f2dffeffaa78d35a552e03d03f0a8
22,3,"""",practice_procedure,stim_practice,canvas-button-response,30,79197,0.0-9.0-0.0-1.4,3PKVGQTFJQLSZOM7OKJDU84QFXXYRA,A1YSYI926BBOHW,3PIWWX1FJS7OTV5OKHE36EZZVXXJJZ,FWIP4,FWIP4,3PIWWX1FJS7OTV5OKHE36EZZVXXJJZ,3PIWWX1FJS7OTV5OKHE36EZZVXXJJZ,338054,338054,3,0.06,"""",917.6000000238419,1,practiceStim3,1,Clockwise,true,"""",0.3,60,0.99,"""","2021-12-31 04:15:26",73.189.186.35,"Mozilla/5.0 (Windows NT 10.0; Win64; x64) AppleWebKit/537.36 (KHTML, like Gecko) Chrome/94.0.4606.54 Safari/537.36 Edg/93.0.961.38",WebKit,Edge,93.0.961.38,Windows,10.0,ac0f2dffeffaa78d35a552e03d03f0a8
22,3,"""",practice_procedure,confidence_rating,html-slider-response,31,80492,0.0-9.0-0.0-2.4,3PKVGQTFJQLSZOM7OKJDU84QFXXYRA,A1YSYI926BBOHW,3PIWWX1FJS7OTV5OKHE36EZZVXXJJZ,FWIP4,FWIP4,3PIWWX1FJS7OTV5OKHE36EZZVXXJJZ,3PIWWX1FJS7OTV5OKHE36EZZVXXJJZ,338054,338054,3,0.06,"""",1293.1000000238419,99,"<div id=""message-div""><p>How confident are you that your clockwise/counter-clockwise response just now was accurate? Please rate your confidence on the slider bar below.</p></div>","""","""","""",50,"""","""","""",99,"2021-12-31 04:15:26",73.189.186.35,"Mozilla/5.0 (Windows NT 10.0; Win64; x64) AppleWebKit/537.36 (KHTML, like Gecko) Chrome/94.0.4606.54 Safari/537.36 Edg/93.0.961.38",WebKit,Edge,93.0.961.38,Windows,10.0,ac0f2dffeffaa78d35a552e03d03f0a8
22,3,"""",practice_procedure,fixation,html-keyboard-response,32,80995,0.0-9.0-0.0-0.5,3PKVGQTFJQLSZOM7OKJDU84QFXXYRA,A1YSYI926BBOHW,3PIWWX1FJS7OTV5OKHE36EZZVXXJJZ,FWIP4,FWIP4,3PIWWX1FJS7OTV5OKHE36EZZVXXJJZ,3PIWWX1FJS7OTV5OKHE36EZZVXXJJZ,338054,338054,3,0.06,"""",null,null,"<div class = fixationbox><div class = fixation>+</div></div>","""","""","""","""","""","""","""","""","2021-12-31 04:15:26",73.189.186.35,"Mozilla/5.0 (Windows NT 10.0; Win64; x64) AppleWebKit/537.36 (KHTML, like Gecko) Chrome/94.0.4606.54 Safari/537.36 Edg/93.0.961.38",WebKit,Edge,93.0.961.38,Windows,10.0,ac0f2dffeffaa78d35a552e03d03f0a8
22,3,"""",practice_procedure,stim_practice,canvas-button-response,33,82069,0.0-9.0-0.0-1.5,3PKVGQTFJQLSZOM7OKJDU84QFXXYRA,A1YSYI926BBOHW,3PIWWX1FJS7OTV5OKHE36EZZVXXJJZ,FWIP4,FWIP4,3PIWWX1FJS7OTV5OKHE36EZZVXXJJZ,3PIWWX1FJS7OTV5OKHE36EZZVXXJJZ,338054,338054,3,0.06,"""",1001.6000000238419,1,practiceStim1,1,Clockwise,true,"""",0.01,60,0.99,"""","2021-12-31 04:15:26",73.189.186.35,"Mozilla/5.0 (Windows NT 10.0; Win64; x64) AppleWebKit/537.36 (KHTML, like Gecko) Chrome/94.0.4606.54 Safari/537.36 Edg/93.0.961.38",WebKit,Edge,93.0.961.38,Windows,10.0,ac0f2dffeffaa78d35a552e03d03f0a8
22,3,"""",practice_procedure,confidence_rating,html-slider-response,34,83314,0.0-9.0-0.0-2.5,3PKVGQTFJQLSZOM7OKJDU84QFXXYRA,A1YSYI926BBOHW,3PIWWX1FJS7OTV5OKHE36EZZVXXJJZ,FWIP4,FWIP4,3PIWWX1FJS7OTV5OKHE36EZZVXXJJZ,3PIWWX1FJS7OTV5OKHE36EZZVXXJJZ,338054,338054,3,0.06,"""",1243.699999988079,99,"<div id=""message-div""><p>How confident are you that your clockwise/counter-clockwise response just now was accurate? Please rate your confidence on the slider bar below.</p></div>","""","""","""",50,"""","""","""",99,"2021-12-31 04:15:26",73.189.186.35,"Mozilla/5.0 (Windows NT 10.0; Win64; x64) AppleWebKit/537.36 (KHTML, like Gecko) Chrome/94.0.4606.54 Safari/537.36 Edg/93.0.961.38",WebKit,Edge,93.0.961.38,Windows,10.0,ac0f2dffeffaa78d35a552e03d03f0a8
22,3,"""",practice_procedure,fixation,html-keyboard-response,35,83818,0.0-9.0-0.0-0.6,3PKVGQTFJQLSZOM7OKJDU84QFXXYRA,A1YSYI926BBOHW,3PIWWX1FJS7OTV5OKHE36EZZVXXJJZ,FWIP4,FWIP4,3PIWWX1FJS7OTV5OKHE36EZZVXXJJZ,3PIWWX1FJS7OTV5OKHE36EZZVXXJJZ,338054,338054,3,0.06,"""",null,null,"<div class = fixationbox><div class = fixation>+</div></div>","""","""","""","""","""","""","""","""","2021-12-31 04:15:26",73.189.186.35,"Mozilla/5.0 (Windows NT 10.0; Win64; x64) AppleWebKit/537.36 (KHTML, like Gecko) Chrome/94.0.4606.54 Safari/537.36 Edg/93.0.961.38",WebKit,Edge,93.0.961.38,Windows,10.0,ac0f2dffeffaa78d35a552e03d03f0a8
22,3,"""",practice_procedure,stim_practice,canvas-button-response,36,84919,0.0-9.0-0.0-1.6,3PKVGQTFJQLSZOM7OKJDU84QFXXYRA,A1YSYI926BBOHW,3PIWWX1FJS7OTV5OKHE36EZZVXXJJZ,FWIP4,FWIP4,3PIWWX1FJS7OTV5OKHE36EZZVXXJJZ,3PIWWX1FJS7OTV5OKHE36EZZVXXJJZ,338054,338054,3,0.06,"""",1072.2000000476837,1,practiceStim3,1,Clockwise,true,"""",0.3,60,0.99,"""","2021-12-31 04:15:26",73.189.186.35,"Mozilla/5.0 (Windows NT 10.0; Win64; x64) AppleWebKit/537.36 (KHTML, like Gecko) Chrome/94.0.4606.54 Safari/537.36 Edg/93.0.961.38",WebKit,Edge,93.0.961.38,Windows,10.0,ac0f2dffeffaa78d35a552e03d03f0a8
22,3,"""",practice_procedure,confidence_rating,html-slider-response,37,86160,0.0-9.0-0.0-2.6,3PKVGQTFJQLSZOM7OKJDU84QFXXYRA,A1YSYI926BBOHW,3PIWWX1FJS7OTV5OKHE36EZZVXXJJZ,FWIP4,FWIP4,3PIWWX1FJS7OTV5OKHE36EZZVXXJJZ,3PIWWX1FJS7OTV5OKHE36EZZVXXJJZ,338054,338054,3,0.06,"""",1239.5,98,"<div id=""message-div""><p>How confident are you that your clockwise/counter-clockwise response just now was accurate? Please rate your confidence on the slider bar below.</p></div>","""","""","""",50,"""","""","""",98,"2021-12-31 04:15:26",73.189.186.35,"Mozilla/5.0 (Windows NT 10.0; Win64; x64) AppleWebKit/537.36 (KHTML, like Gecko) Chrome/94.0.4606.54 Safari/537.36 Edg/93.0.961.38",WebKit,Edge,93.0.961.38,Windows,10.0,ac0f2dffeffaa78d35a552e03d03f0a8
22,3,"""",practice_procedure,fixation,html-keyboard-response,38,86662,0.0-9.0-0.0-0.7,3PKVGQTFJQLSZOM7OKJDU84QFXXYRA,A1YSYI926BBOHW,3PIWWX1FJS7OTV5OKHE36EZZVXXJJZ,FWIP4,FWIP4,3PIWWX1FJS7OTV5OKHE36EZZVXXJJZ,3PIWWX1FJS7OTV5OKHE36EZZVXXJJZ,338054,338054,3,0.06,"""",null,null,"<div class = fixationbox><div class = fixation>+</div></div>","""","""","""","""","""","""","""","""","2021-12-31 04:15:26",73.189.186.35,"Mozilla/5.0 (Windows NT 10.0; Win64; x64) AppleWebKit/537.36 (KHTML, like Gecko) Chrome/94.0.4606.54 Safari/537.36 Edg/93.0.961.38",WebKit,Edge,93.0.961.38,Windows,10.0,ac0f2dffeffaa78d35a552e03d03f0a8
22,3,"""",practice_procedure,stim_practice,canvas-button-response,39,87681,0.0-9.0-0.0-1.7,3PKVGQTFJQLSZOM7OKJDU84QFXXYRA,A1YSYI926BBOHW,3PIWWX1FJS7OTV5OKHE36EZZVXXJJZ,FWIP4,FWIP4,3PIWWX1FJS7OTV5OKHE36EZZVXXJJZ,3PIWWX1FJS7OTV5OKHE36EZZVXXJJZ,338054,338054,3,0.06,"""",984.5999999642372,1,practiceStim1,1,Clockwise,true,"""",0.01,60,0.99,"""","2021-12-31 04:15:26",73.189.186.35,"Mozilla/5.0 (Windows NT 10.0; Win64; x64) AppleWebKit/537.36 (KHTML, like Gecko) Chrome/94.0.4606.54 Safari/537.36 Edg/93.0.961.38",WebKit,Edge,93.0.961.38,Windows,10.0,ac0f2dffeffaa78d35a552e03d03f0a8
22,3,"""",practice_procedure,confidence_rating,html-slider-response,40,88925,0.0-9.0-0.0-2.7,3PKVGQTFJQLSZOM7OKJDU84QFXXYRA,A1YSYI926BBOHW,3PIWWX1FJS7OTV5OKHE36EZZVXXJJZ,FWIP4,FWIP4,3PIWWX1FJS7OTV5OKHE36EZZVXXJJZ,3PIWWX1FJS7OTV5OKHE36EZZVXXJJZ,338054,338054,3,0.06,"""",1243.2999999523163,100,"<div id=""message-div""><p>How confident are you that your clockwise/counter-clockwise response just now was accurate? Please rate your confidence on the slider bar below.</p></div>","""","""","""",50,"""","""","""",100,"2021-12-31 04:15:26",73.189.186.35,"Mozilla/5.0 (Windows NT 10.0; Win64; x64) AppleWebKit/537.36 (KHTML, like Gecko) Chrome/94.0.4606.54 Safari/537.36 Edg/93.0.961.38",WebKit,Edge,93.0.961.38,Windows,10.0,ac0f2dffeffaa78d35a552e03d03f0a8
22,3,"""",practice_procedure,fixation,html-keyboard-response,41,89430,0.0-9.0-0.0-0.8,3PKVGQTFJQLSZOM7OKJDU84QFXXYRA,A1YSYI926BBOHW,3PIWWX1FJS7OTV5OKHE36EZZVXXJJZ,FWIP4,FWIP4,3PIWWX1FJS7OTV5OKHE36EZZVXXJJZ,3PIWWX1FJS7OTV5OKHE36EZZVXXJJZ,338054,338054,3,0.06,"""",null,null,"<div class = fixationbox><div class = fixation>+</div></div>","""","""","""","""","""","""","""","""","2021-12-31 04:15:26",73.189.186.35,"Mozilla/5.0 (Windows NT 10.0; Win64; x64) AppleWebKit/537.36 (KHTML, like Gecko) Chrome/94.0.4606.54 Safari/537.36 Edg/93.0.961.38",WebKit,Edge,93.0.961.38,Windows,10.0,ac0f2dffeffaa78d35a552e03d03f0a8
22,3,"""",practice_procedure,stim_practice,canvas-button-response,42,90859,0.0-9.0-0.0-1.8,3PKVGQTFJQLSZOM7OKJDU84QFXXYRA,A1YSYI926BBOHW,3PIWWX1FJS7OTV5OKHE36EZZVXXJJZ,FWIP4,FWIP4,3PIWWX1FJS7OTV5OKHE36EZZVXXJJZ,3PIWWX1FJS7OTV5OKHE36EZZVXXJJZ,338054,338054,3,0.06,"""",1365.0999999642372,1,practiceStim3,1,Clockwise,true,"""",0.3,60,0.99,"""","2021-12-31 04:15:26",73.189.186.35,"Mozilla/5.0 (Windows NT 10.0; Win64; x64) AppleWebKit/537.36 (KHTML, like Gecko) Chrome/94.0.4606.54 Safari/537.36 Edg/93.0.961.38",WebKit,Edge,93.0.961.38,Windows,10.0,ac0f2dffeffaa78d35a552e03d03f0a8
22,3,"""",practice_procedure,confidence_rating,html-slider-response,43,92144,0.0-9.0-0.0-2.8,3PKVGQTFJQLSZOM7OKJDU84QFXXYRA,A1YSYI926BBOHW,3PIWWX1FJS7OTV5OKHE36EZZVXXJJZ,FWIP4,FWIP4,3PIWWX1FJS7OTV5OKHE36EZZVXXJJZ,3PIWWX1FJS7OTV5OKHE36EZZVXXJJZ,338054,338054,3,0.06,"""",1283.9000000357628,99,"<div id=""message-div""><p>How confident are you that your clockwise/counter-clockwise response just now was accurate? Please rate your confidence on the slider bar below.</p></div>","""","""","""",50,"""","""","""",99,"2021-12-31 04:15:26",73.189.186.35,"Mozilla/5.0 (Windows NT 10.0; Win64; x64) AppleWebKit/537.36 (KHTML, like Gecko) Chrome/94.0.4606.54 Safari/537.36 Edg/93.0.961.38",WebKit,Edge,93.0.961.38,Windows,10.0,ac0f2dffeffaa78d35a552e03d03f0a8
22,3,"""",practice_procedure,fixation,html-keyboard-response,44,92646,0.0-9.0-0.0-0.9,3PKVGQTFJQLSZOM7OKJDU84QFXXYRA,A1YSYI926BBOHW,3PIWWX1FJS7OTV5OKHE36EZZVXXJJZ,FWIP4,FWIP4,3PIWWX1FJS7OTV5OKHE36EZZVXXJJZ,3PIWWX1FJS7OTV5OKHE36EZZVXXJJZ,338054,338054,3,0.06,"""",null,null,"<div class = fixationbox><div class = fixation>+</div></div>","""","""","""","""","""","""","""","""","2021-12-31 04:15:26",73.189.186.35,"Mozilla/5.0 (Windows NT 10.0; Win64; x64) AppleWebKit/537.36 (KHTML, like Gecko) Chrome/94.0.4606.54 Safari/537.36 Edg/93.0.961.38",WebKit,Edge,93.0.961.38,Windows,10.0,ac0f2dffeffaa78d35a552e03d03f0a8
22,3,"""",practice_procedure,stim_practice,canvas-button-response,45,93643,0.0-9.0-0.0-1.9,3PKVGQTFJQLSZOM7OKJDU84QFXXYRA,A1YSYI926BBOHW,3PIWWX1FJS7OTV5OKHE36EZZVXXJJZ,FWIP4,FWIP4,3PIWWX1FJS7OTV5OKHE36EZZVXXJJZ,3PIWWX1FJS7OTV5OKHE36EZZVXXJJZ,338054,338054,3,0.06,"""",940.7000000476837,1,practiceStim1,1,Clockwise,true,"""",0.01,60,0.99,"""","2021-12-31 04:15:26",73.189.186.35,"Mozilla/5.0 (Windows NT 10.0; Win64; x64) AppleWebKit/537.36 (KHTML, like Gecko) Chrome/94.0.4606.54 Safari/537.36 Edg/93.0.961.38",WebKit,Edge,93.0.961.38,Windows,10.0,ac0f2dffeffaa78d35a552e03d03f0a8
22,3,"""",practice_procedure,confidence_rating,html-slider-response,46,94912,0.0-9.0-0.0-2.9,3PKVGQTFJQLSZOM7OKJDU84QFXXYRA,A1YSYI926BBOHW,3PIWWX1FJS7OTV5OKHE36EZZVXXJJZ,FWIP4,FWIP4,3PIWWX1FJS7OTV5OKHE36EZZVXXJJZ,3PIWWX1FJS7OTV5OKHE36EZZVXXJJZ,338054,338054,3,0.06,"""",1267.300000011921,99,"<div id=""message-div""><p>How confident are you that your clockwise/counter-clockwise response just now was accurate? Please rate your confidence on the slider bar below.</p></div>","""","""","""",50,"""","""","""",99,"2021-12-31 04:15:26",73.189.186.35,"Mozilla/5.0 (Windows NT 10.0; Win64; x64) AppleWebKit/537.36 (KHTML, like Gecko) Chrome/94.0.4606.54 Safari/537.36 Edg/93.0.961.38",WebKit,Edge,93.0.961.38,Windows,10.0,ac0f2dffeffaa78d35a552e03d03f0a8
22,3,"""",pre-test,test_instruction,instructions,47,104652,0.0-10.0,3PKVGQTFJQLSZOM7OKJDU84QFXXYRA,A1YSYI926BBOHW,3PIWWX1FJS7OTV5OKHE36EZZVXXJJZ,FWIP4,FWIP4,3PIWWX1FJS7OTV5OKHE36EZZVXXJJZ,3PIWWX1FJS7OTV5OKHE36EZZVXXJJZ,338054,338054,3,0.06,"[{""page_index"":0,""viewing_time"":9732.900000035763}]",9733.200000047684,"""","""","""","""","""","""","""","""","""","""","2021-12-31 04:15:26",73.189.186.35,"Mozilla/5.0 (Windows NT 10.0; Win64; x64) AppleWebKit/537.36 (KHTML, like Gecko) Chrome/94.0.4606.54 Safari/537.36 Edg/93.0.961.38",WebKit,Edge,93.0.961.38,Windows,10.0,ac0f2dffeffaa78d35a552e03d03f0a8
22,3,"""",test_procedure,fixation,html-keyboard-response,48,105153,0.0-11.0-0.0-0.0,3PKVGQTFJQLSZOM7OKJDU84QFXXYRA,A1YSYI926BBOHW,3PIWWX1FJS7OTV5OKHE36EZZVXXJJZ,FWIP4,FWIP4,3PIWWX1FJS7OTV5OKHE36EZZVXXJJZ,3PIWWX1FJS7OTV5OKHE36EZZVXXJJZ,338054,338054,3,0.06,"""",null,null,"<div class = fixationbox><div class = fixation>+</div></div>","""","""","""","""","""","""","""","""","2021-12-31 04:15:26",73.189.186.35,"Mozilla/5.0 (Windows NT 10.0; Win64; x64) AppleWebKit/537.36 (KHTML, like Gecko) Chrome/94.0.4606.54 Safari/537.36 Edg/93.0.961.38",WebKit,Edge,93.0.961.38,Windows,10.0,ac0f2dffeffaa78d35a552e03d03f0a8
22,3,"""",test_procedure,stim_test,canvas-button-response,49,107502,0.0-11.0-0.0-1.0,3PKVGQTFJQLSZOM7OKJDU84QFXXYRA,A1YSYI926BBOHW,3PIWWX1FJS7OTV5OKHE36EZZVXXJJZ,FWIP4,FWIP4,3PIWWX1FJS7OTV5OKHE36EZZVXXJJZ,3PIWWX1FJS7OTV5OKHE36EZZVXXJJZ,338054,338054,3,0.06,"""",2229.400000035763,1,stim1,1,Clockwise,true,"""",0.01,60,"""","""","2021-12-31 04:15:26",73.189.186.35,"Mozilla/5.0 (Windows NT 10.0; Win64; x64) AppleWebKit/537.36 (KHTML, like Gecko) Chrome/94.0.4606.54 Safari/537.36 Edg/93.0.961.38",WebKit,Edge,93.0.961.38,Windows,10.0,ac0f2dffeffaa78d35a552e03d03f0a8
22,3,"""",test_procedure,confidence_rating,html-slider-response,50,109647,0.0-11.0-0.0-2.0,3PKVGQTFJQLSZOM7OKJDU84QFXXYRA,A1YSYI926BBOHW,3PIWWX1FJS7OTV5OKHE36EZZVXXJJZ,FWIP4,FWIP4,3PIWWX1FJS7OTV5OKHE36EZZVXXJJZ,3PIWWX1FJS7OTV5OKHE36EZZVXXJJZ,338054,338054,3,0.06,"""",2144.599999964237,2,"<div id=""message-div""><p>How confident are you that your clockwise/counter-clockwise response just now was accurate? Please rate your confidence on the slider bar below.</p></div>","""","""","""",50,"""","""","""",2,"2021-12-31 04:15:26",73.189.186.35,"Mozilla/5.0 (Windows NT 10.0; Win64; x64) AppleWebKit/537.36 (KHTML, like Gecko) Chrome/94.0.4606.54 Safari/537.36 Edg/93.0.961.38",WebKit,Edge,93.0.961.38,Windows,10.0,ac0f2dffeffaa78d35a552e03d03f0a8
22,3,"""",test_procedure,fixation,html-keyboard-response,51,110150,0.0-11.0-0.0-0.1,3PKVGQTFJQLSZOM7OKJDU84QFXXYRA,A1YSYI926BBOHW,3PIWWX1FJS7OTV5OKHE36EZZVXXJJZ,FWIP4,FWIP4,3PIWWX1FJS7OTV5OKHE36EZZVXXJJZ,3PIWWX1FJS7OTV5OKHE36EZZVXXJJZ,338054,338054,3,0.06,"""",null,null,"<div class = fixationbox><div class = fixation>+</div></div>","""","""","""","""","""","""","""","""","2021-12-31 04:15:26",73.189.186.35,"Mozilla/5.0 (Windows NT 10.0; Win64; x64) AppleWebKit/537.36 (KHTML, like Gecko) Chrome/94.0.4606.54 Safari/537.36 Edg/93.0.961.38",WebKit,Edge,93.0.961.38,Windows,10.0,ac0f2dffeffaa78d35a552e03d03f0a8
22,3,"""",test_procedure,stim_test,canvas-button-response,52,111941,0.0-11.0-0.0-1.1,3PKVGQTFJQLSZOM7OKJDU84QFXXYRA,A1YSYI926BBOHW,3PIWWX1FJS7OTV5OKHE36EZZVXXJJZ,FWIP4,FWIP4,3PIWWX1FJS7OTV5OKHE36EZZVXXJJZ,3PIWWX1FJS7OTV5OKHE36EZZVXXJJZ,338054,338054,3,0.06,"""",1717.1000000238419,1,stim3,1,Clockwise,true,"""",0.3,60,"""","""","2021-12-31 04:15:26",73.189.186.35,"Mozilla/5.0 (Windows NT 10.0; Win64; x64) AppleWebKit/537.36 (KHTML, like Gecko) Chrome/94.0.4606.54 Safari/537.36 Edg/93.0.961.38",WebKit,Edge,93.0.961.38,Windows,10.0,ac0f2dffeffaa78d35a552e03d03f0a8
22,3,"""",test_procedure,confidence_rating,html-slider-response,53,113114,0.0-11.0-0.0-2.1,3PKVGQTFJQLSZOM7OKJDU84QFXXYRA,A1YSYI926BBOHW,3PIWWX1FJS7OTV5OKHE36EZZVXXJJZ,FWIP4,FWIP4,3PIWWX1FJS7OTV5OKHE36EZZVXXJJZ,3PIWWX1FJS7OTV5OKHE36EZZVXXJJZ,338054,338054,3,0.06,"""",1170.300000011921,96,"<div id=""message-div""><p>How confident are you that your clockwise/counter-clockwise response just now was accurate? Please rate your confidence on the slider bar below.</p></div>","""","""","""",50,"""","""","""",96,"2021-12-31 04:15:26",73.189.186.35,"Mozilla/5.0 (Windows NT 10.0; Win64; x64) AppleWebKit/537.36 (KHTML, like Gecko) Chrome/94.0.4606.54 Safari/537.36 Edg/93.0.961.38",WebKit,Edge,93.0.961.38,Windows,10.0,ac0f2dffeffaa78d35a552e03d03f0a8
22,3,"""",test_procedure,fixation,html-keyboard-response,54,113629,0.0-11.0-0.0-0.2,3PKVGQTFJQLSZOM7OKJDU84QFXXYRA,A1YSYI926BBOHW,3PIWWX1FJS7OTV5OKHE36EZZVXXJJZ,FWIP4,FWIP4,3PIWWX1FJS7OTV5OKHE36EZZVXXJJZ,3PIWWX1FJS7OTV5OKHE36EZZVXXJJZ,338054,338054,3,0.06,"""",null,null,"<div class = fixationbox><div class = fixation>+</div></div>","""","""","""","""","""","""","""","""","2021-12-31 04:15:26",73.189.186.35,"Mozilla/5.0 (Windows NT 10.0; Win64; x64) AppleWebKit/537.36 (KHTML, like Gecko) Chrome/94.0.4606.54 Safari/537.36 Edg/93.0.961.38",WebKit,Edge,93.0.961.38,Windows,10.0,ac0f2dffeffaa78d35a552e03d03f0a8
22,3,"""",test_procedure,stim_test,canvas-button-response,55,115010,0.0-11.0-0.0-1.2,3PKVGQTFJQLSZOM7OKJDU84QFXXYRA,A1YSYI926BBOHW,3PIWWX1FJS7OTV5OKHE36EZZVXXJJZ,FWIP4,FWIP4,3PIWWX1FJS7OTV5OKHE36EZZVXXJJZ,3PIWWX1FJS7OTV5OKHE36EZZVXXJJZ,338054,338054,3,0.06,"""",1335.1000000238419,1,stim1,1,Clockwise,true,"""",0.01,60,"""","""","2021-12-31 04:15:26",73.189.186.35,"Mozilla/5.0 (Windows NT 10.0; Win64; x64) AppleWebKit/537.36 (KHTML, like Gecko) Chrome/94.0.4606.54 Safari/537.36 Edg/93.0.961.38",WebKit,Edge,93.0.961.38,Windows,10.0,ac0f2dffeffaa78d35a552e03d03f0a8
22,3,"""",test_procedure,confidence_rating,html-slider-response,56,116150,0.0-11.0-0.0-2.2,3PKVGQTFJQLSZOM7OKJDU84QFXXYRA,A1YSYI926BBOHW,3PIWWX1FJS7OTV5OKHE36EZZVXXJJZ,FWIP4,FWIP4,3PIWWX1FJS7OTV5OKHE36EZZVXXJJZ,3PIWWX1FJS7OTV5OKHE36EZZVXXJJZ,338054,338054,3,0.06,"""",1139.199999988079,5,"<div id=""message-div""><p>How confident are you that your clockwise/counter-clockwise response just now was accurate? Please rate your confidence on the slider bar below.</p></div>","""","""","""",50,"""","""","""",5,"2021-12-31 04:15:26",73.189.186.35,"Mozilla/5.0 (Windows NT 10.0; Win64; x64) AppleWebKit/537.36 (KHTML, like Gecko) Chrome/94.0.4606.54 Safari/537.36 Edg/93.0.961.38",WebKit,Edge,93.0.961.38,Windows,10.0,ac0f2dffeffaa78d35a552e03d03f0a8
22,3,"""",test_procedure,fixation,html-keyboard-response,57,116652,0.0-11.0-0.0-0.3,3PKVGQTFJQLSZOM7OKJDU84QFXXYRA,A1YSYI926BBOHW,3PIWWX1FJS7OTV5OKHE36EZZVXXJJZ,FWIP4,FWIP4,3PIWWX1FJS7OTV5OKHE36EZZVXXJJZ,3PIWWX1FJS7OTV5OKHE36EZZVXXJJZ,338054,338054,3,0.06,"""",null,null,"<div class = fixationbox><div class = fixation>+</div></div>","""","""","""","""","""","""","""","""","2021-12-31 04:15:26",73.189.186.35,"Mozilla/5.0 (Windows NT 10.0; Win64; x64) AppleWebKit/537.36 (KHTML, like Gecko) Chrome/94.0.4606.54 Safari/537.36 Edg/93.0.961.38",WebKit,Edge,93.0.961.38,Windows,10.0,ac0f2dffeffaa78d35a552e03d03f0a8
22,3,"""",test_procedure,stim_test,canvas-button-response,58,118085,0.0-11.0-0.0-1.3,3PKVGQTFJQLSZOM7OKJDU84QFXXYRA,A1YSYI926BBOHW,3PIWWX1FJS7OTV5OKHE36EZZVXXJJZ,FWIP4,FWIP4,3PIWWX1FJS7OTV5OKHE36EZZVXXJJZ,3PIWWX1FJS7OTV5OKHE36EZZVXXJJZ,338054,338054,3,0.06,"""",1402,1,catchStim8,0,Counter-clockwise,false,"""",0.3,120,0.001,"""","2021-12-31 04:15:26",73.189.186.35,"Mozilla/5.0 (Windows NT 10.0; Win64; x64) AppleWebKit/537.36 (KHTML, like Gecko) Chrome/94.0.4606.54 Safari/537.36 Edg/93.0.961.38",WebKit,Edge,93.0.961.38,Windows,10.0,ac0f2dffeffaa78d35a552e03d03f0a8
22,3,"""",test_procedure,confidence_rating,html-slider-response,59,119700,0.0-11.0-0.0-2.3,3PKVGQTFJQLSZOM7OKJDU84QFXXYRA,A1YSYI926BBOHW,3PIWWX1FJS7OTV5OKHE36EZZVXXJJZ,FWIP4,FWIP4,3PIWWX1FJS7OTV5OKHE36EZZVXXJJZ,3PIWWX1FJS7OTV5OKHE36EZZVXXJJZ,338054,338054,3,0.06,"""",1612.699999988079,3,"<div id=""message-div""><p>How confident are you that your clockwise/counter-clockwise response just now was accurate? Please rate your confidence on the slider bar below.</p></div>","""","""","""",50,"""","""","""",3,"2021-12-31 04:15:26",73.189.186.35,"Mozilla/5.0 (Windows NT 10.0; Win64; x64) AppleWebKit/537.36 (KHTML, like Gecko) Chrome/94.0.4606.54 Safari/537.36 Edg/93.0.961.38",WebKit,Edge,93.0.961.38,Windows,10.0,ac0f2dffeffaa78d35a552e03d03f0a8
22,3,"""",test_procedure,fixation,html-keyboard-response,60,120203,0.0-11.0-0.0-0.4,3PKVGQTFJQLSZOM7OKJDU84QFXXYRA,A1YSYI926BBOHW,3PIWWX1FJS7OTV5OKHE36EZZVXXJJZ,FWIP4,FWIP4,3PIWWX1FJS7OTV5OKHE36EZZVXXJJZ,3PIWWX1FJS7OTV5OKHE36EZZVXXJJZ,338054,338054,3,0.06,"""",null,null,"<div class = fixationbox><div class = fixation>+</div></div>","""","""","""","""","""","""","""","""","2021-12-31 04:15:26",73.189.186.35,"Mozilla/5.0 (Windows NT 10.0; Win64; x64) AppleWebKit/537.36 (KHTML, like Gecko) Chrome/94.0.4606.54 Safari/537.36 Edg/93.0.961.38",WebKit,Edge,93.0.961.38,Windows,10.0,ac0f2dffeffaa78d35a552e03d03f0a8
22,3,"""",test_procedure,stim_test,canvas-button-response,61,121595,0.0-11.0-0.0-1.4,3PKVGQTFJQLSZOM7OKJDU84QFXXYRA,A1YSYI926BBOHW,3PIWWX1FJS7OTV5OKHE36EZZVXXJJZ,FWIP4,FWIP4,3PIWWX1FJS7OTV5OKHE36EZZVXXJJZ,3PIWWX1FJS7OTV5OKHE36EZZVXXJJZ,338054,338054,3,0.06,"""",1324.699999988079,0,stim2,0,Counter-clockwise,true,"""",0.01,120,"""","""","2021-12-31 04:15:26",73.189.186.35,"Mozilla/5.0 (Windows NT 10.0; Win64; x64) AppleWebKit/537.36 (KHTML, like Gecko) Chrome/94.0.4606.54 Safari/537.36 Edg/93.0.961.38",WebKit,Edge,93.0.961.38,Windows,10.0,ac0f2dffeffaa78d35a552e03d03f0a8
22,3,"""",test_procedure,confidence_rating,html-slider-response,62,122700,0.0-11.0-0.0-2.4,3PKVGQTFJQLSZOM7OKJDU84QFXXYRA,A1YSYI926BBOHW,3PIWWX1FJS7OTV5OKHE36EZZVXXJJZ,FWIP4,FWIP4,3PIWWX1FJS7OTV5OKHE36EZZVXXJJZ,3PIWWX1FJS7OTV5OKHE36EZZVXXJJZ,338054,338054,3,0.06,"""",1104.300000011921,54,"<div id=""message-div""><p>How confident are you that your clockwise/counter-clockwise response just now was accurate? Please rate your confidence on the slider bar below.</p></div>","""","""","""",50,"""","""","""",54,"2021-12-31 04:15:26",73.189.186.35,"Mozilla/5.0 (Windows NT 10.0; Win64; x64) AppleWebKit/537.36 (KHTML, like Gecko) Chrome/94.0.4606.54 Safari/537.36 Edg/93.0.961.38",WebKit,Edge,93.0.961.38,Windows,10.0,ac0f2dffeffaa78d35a552e03d03f0a8
22,3,"""",test_procedure,fixation,html-keyboard-response,63,123216,0.0-11.0-0.0-0.5,3PKVGQTFJQLSZOM7OKJDU84QFXXYRA,A1YSYI926BBOHW,3PIWWX1FJS7OTV5OKHE36EZZVXXJJZ,FWIP4,FWIP4,3PIWWX1FJS7OTV5OKHE36EZZVXXJJZ,3PIWWX1FJS7OTV5OKHE36EZZVXXJJZ,338054,338054,3,0.06,"""",null,null,"<div class = fixationbox><div class = fixation>+</div></div>","""","""","""","""","""","""","""","""","2021-12-31 04:15:26",73.189.186.35,"Mozilla/5.0 (Windows NT 10.0; Win64; x64) AppleWebKit/537.36 (KHTML, like Gecko) Chrome/94.0.4606.54 Safari/537.36 Edg/93.0.961.38",WebKit,Edge,93.0.961.38,Windows,10.0,ac0f2dffeffaa78d35a552e03d03f0a8
22,3,"""",test_procedure,stim_test,canvas-button-response,64,125074,0.0-11.0-0.0-1.5,3PKVGQTFJQLSZOM7OKJDU84QFXXYRA,A1YSYI926BBOHW,3PIWWX1FJS7OTV5OKHE36EZZVXXJJZ,FWIP4,FWIP4,3PIWWX1FJS7OTV5OKHE36EZZVXXJJZ,3PIWWX1FJS7OTV5OKHE36EZZVXXJJZ,338054,338054,3,0.06,"""",1772.0999999642372,1,catchStim5,1,Clockwise,true,"""",0.3,60,0.6,"""","2021-12-31 04:15:26",73.189.186.35,"Mozilla/5.0 (Windows NT 10.0; Win64; x64) AppleWebKit/537.36 (KHTML, like Gecko) Chrome/94.0.4606.54 Safari/537.36 Edg/93.0.961.38",WebKit,Edge,93.0.961.38,Windows,10.0,ac0f2dffeffaa78d35a552e03d03f0a8
22,3,"""",test_procedure,confidence_rating,html-slider-response,65,126383,0.0-11.0-0.0-2.5,3PKVGQTFJQLSZOM7OKJDU84QFXXYRA,A1YSYI926BBOHW,3PIWWX1FJS7OTV5OKHE36EZZVXXJJZ,FWIP4,FWIP4,3PIWWX1FJS7OTV5OKHE36EZZVXXJJZ,3PIWWX1FJS7OTV5OKHE36EZZVXXJJZ,338054,338054,3,0.06,"""",1307.3999999761581,96,"<div id=""message-div""><p>How confident are you that your clockwise/counter-clockwise response just now was accurate? Please rate your confidence on the slider bar below.</p></div>","""","""","""",50,"""","""","""",96,"2021-12-31 04:15:26",73.189.186.35,"Mozilla/5.0 (Windows NT 10.0; Win64; x64) AppleWebKit/537.36 (KHTML, like Gecko) Chrome/94.0.4606.54 Safari/537.36 Edg/93.0.961.38",WebKit,Edge,93.0.961.38,Windows,10.0,ac0f2dffeffaa78d35a552e03d03f0a8
22,3,"""",test_procedure,fixation,html-keyboard-response,66,126885,0.0-11.0-0.0-0.6,3PKVGQTFJQLSZOM7OKJDU84QFXXYRA,A1YSYI926BBOHW,3PIWWX1FJS7OTV5OKHE36EZZVXXJJZ,FWIP4,FWIP4,3PIWWX1FJS7OTV5OKHE36EZZVXXJJZ,3PIWWX1FJS7OTV5OKHE36EZZVXXJJZ,338054,338054,3,0.06,"""",null,null,"<div class = fixationbox><div class = fixation>+</div></div>","""","""","""","""","""","""","""","""","2021-12-31 04:15:26",73.189.186.35,"Mozilla/5.0 (Windows NT 10.0; Win64; x64) AppleWebKit/537.36 (KHTML, like Gecko) Chrome/94.0.4606.54 Safari/537.36 Edg/93.0.961.38",WebKit,Edge,93.0.961.38,Windows,10.0,ac0f2dffeffaa78d35a552e03d03f0a8
22,3,"""",test_procedure,stim_test,canvas-button-response,67,127873,0.0-11.0-0.0-1.6,3PKVGQTFJQLSZOM7OKJDU84QFXXYRA,A1YSYI926BBOHW,3PIWWX1FJS7OTV5OKHE36EZZVXXJJZ,FWIP4,FWIP4,3PIWWX1FJS7OTV5OKHE36EZZVXXJJZ,3PIWWX1FJS7OTV5OKHE36EZZVXXJJZ,338054,338054,3,0.06,"""",957.2999999523163,0,stim2,0,Counter-clockwise,true,"""",0.01,120,"""","""","2021-12-31 04:15:26",73.189.186.35,"Mozilla/5.0 (Windows NT 10.0; Win64; x64) AppleWebKit/537.36 (KHTML, like Gecko) Chrome/94.0.4606.54 Safari/537.36 Edg/93.0.961.38",WebKit,Edge,93.0.961.38,Windows,10.0,ac0f2dffeffaa78d35a552e03d03f0a8
22,3,"""",test_procedure,confidence_rating,html-slider-response,68,130538,0.0-11.0-0.0-2.6,3PKVGQTFJQLSZOM7OKJDU84QFXXYRA,A1YSYI926BBOHW,3PIWWX1FJS7OTV5OKHE36EZZVXXJJZ,FWIP4,FWIP4,3PIWWX1FJS7OTV5OKHE36EZZVXXJJZ,3PIWWX1FJS7OTV5OKHE36EZZVXXJJZ,338054,338054,3,0.06,"""",2664.5,7,"<div id=""message-div""><p>How confident are you that your clockwise/counter-clockwise response just now was accurate? Please rate your confidence on the slider bar below.</p></div>","""","""","""",50,"""","""","""",7,"2021-12-31 04:15:26",73.189.186.35,"Mozilla/5.0 (Windows NT 10.0; Win64; x64) AppleWebKit/537.36 (KHTML, like Gecko) Chrome/94.0.4606.54 Safari/537.36 Edg/93.0.961.38",WebKit,Edge,93.0.961.38,Windows,10.0,ac0f2dffeffaa78d35a552e03d03f0a8
22,3,"""",test_procedure,fixation,html-keyboard-response,69,131044,0.0-11.0-0.0-0.7,3PKVGQTFJQLSZOM7OKJDU84QFXXYRA,A1YSYI926BBOHW,3PIWWX1FJS7OTV5OKHE36EZZVXXJJZ,FWIP4,FWIP4,3PIWWX1FJS7OTV5OKHE36EZZVXXJJZ,3PIWWX1FJS7OTV5OKHE36EZZVXXJJZ,338054,338054,3,0.06,"""",null,null,"<div class = fixationbox><div class = fixation>+</div></div>","""","""","""","""","""","""","""","""","2021-12-31 04:15:26",73.189.186.35,"Mozilla/5.0 (Windows NT 10.0; Win64; x64) AppleWebKit/537.36 (KHTML, like Gecko) Chrome/94.0.4606.54 Safari/537.36 Edg/93.0.961.38",WebKit,Edge,93.0.961.38,Windows,10.0,ac0f2dffeffaa78d35a552e03d03f0a8
22,3,"""",test_procedure,stim_test,canvas-button-response,70,132598,0.0-11.0-0.0-1.7,3PKVGQTFJQLSZOM7OKJDU84QFXXYRA,A1YSYI926BBOHW,3PIWWX1FJS7OTV5OKHE36EZZVXXJJZ,FWIP4,FWIP4,3PIWWX1FJS7OTV5OKHE36EZZVXXJJZ,3PIWWX1FJS7OTV5OKHE36EZZVXXJJZ,338054,338054,3,0.06,"""",1514.0999999642372,0,stim4,0,Counter-clockwise,true,"""",0.3,120,"""","""","2021-12-31 04:15:26",73.189.186.35,"Mozilla/5.0 (Windows NT 10.0; Win64; x64) AppleWebKit/537.36 (KHTML, like Gecko) Chrome/94.0.4606.54 Safari/537.36 Edg/93.0.961.38",WebKit,Edge,93.0.961.38,Windows,10.0,ac0f2dffeffaa78d35a552e03d03f0a8
22,3,"""",test_procedure,confidence_rating,html-slider-response,71,133644,0.0-11.0-0.0-2.7,3PKVGQTFJQLSZOM7OKJDU84QFXXYRA,A1YSYI926BBOHW,3PIWWX1FJS7OTV5OKHE36EZZVXXJJZ,FWIP4,FWIP4,3PIWWX1FJS7OTV5OKHE36EZZVXXJJZ,3PIWWX1FJS7OTV5OKHE36EZZVXXJJZ,338054,338054,3,0.06,"""",1044.699999988079,3,"<div id=""message-div""><p>How confident are you that your clockwise/counter-clockwise response just now was accurate? Please rate your confidence on the slider bar below.</p></div>","""","""","""",50,"""","""","""",3,"2021-12-31 04:15:26",73.189.186.35,"Mozilla/5.0 (Windows NT 10.0; Win64; x64) AppleWebKit/537.36 (KHTML, like Gecko) Chrome/94.0.4606.54 Safari/537.36 Edg/93.0.961.38",WebKit,Edge,93.0.961.38,Windows,10.0,ac0f2dffeffaa78d35a552e03d03f0a8
22,3,"""",test_procedure,fixation,html-keyboard-response,72,134147,0.0-11.0-0.0-0.8,3PKVGQTFJQLSZOM7OKJDU84QFXXYRA,A1YSYI926BBOHW,3PIWWX1FJS7OTV5OKHE36EZZVXXJJZ,FWIP4,FWIP4,3PIWWX1FJS7OTV5OKHE36EZZVXXJJZ,3PIWWX1FJS7OTV5OKHE36EZZVXXJJZ,338054,338054,3,0.06,"""",null,null,"<div class = fixationbox><div class = fixation>+</div></div>","""","""","""","""","""","""","""","""","2021-12-31 04:15:26",73.189.186.35,"Mozilla/5.0 (Windows NT 10.0; Win64; x64) AppleWebKit/537.36 (KHTML, like Gecko) Chrome/94.0.4606.54 Safari/537.36 Edg/93.0.961.38",WebKit,Edge,93.0.961.38,Windows,10.0,ac0f2dffeffaa78d35a552e03d03f0a8
22,3,"""",test_procedure,stim_test,canvas-button-response,73,136527,0.0-11.0-0.0-1.8,3PKVGQTFJQLSZOM7OKJDU84QFXXYRA,A1YSYI926BBOHW,3PIWWX1FJS7OTV5OKHE36EZZVXXJJZ,FWIP4,FWIP4,3PIWWX1FJS7OTV5OKHE36EZZVXXJJZ,3PIWWX1FJS7OTV5OKHE36EZZVXXJJZ,338054,338054,3,0.06,"""",2344.5,0,catchStim4,0,Counter-clockwise,true,"""",0.01,120,0.001,"""","2021-12-31 04:15:26",73.189.186.35,"Mozilla/5.0 (Windows NT 10.0; Win64; x64) AppleWebKit/537.36 (KHTML, like Gecko) Chrome/94.0.4606.54 Safari/537.36 Edg/93.0.961.38",WebKit,Edge,93.0.961.38,Windows,10.0,ac0f2dffeffaa78d35a552e03d03f0a8
22,3,"""",test_procedure,confidence_rating,html-slider-response,74,138010,0.0-11.0-0.0-2.8,3PKVGQTFJQLSZOM7OKJDU84QFXXYRA,A1YSYI926BBOHW,3PIWWX1FJS7OTV5OKHE36EZZVXXJJZ,FWIP4,FWIP4,3PIWWX1FJS7OTV5OKHE36EZZVXXJJZ,3PIWWX1FJS7OTV5OKHE36EZZVXXJJZ,338054,338054,3,0.06,"""",1479.300000011921,0,"<div id=""message-div""><p>How confident are you that your clockwise/counter-clockwise response just now was accurate? Please rate your confidence on the slider bar below.</p></div>","""","""","""",50,"""","""","""",0,"2021-12-31 04:15:26",73.189.186.35,"Mozilla/5.0 (Windows NT 10.0; Win64; x64) AppleWebKit/537.36 (KHTML, like Gecko) Chrome/94.0.4606.54 Safari/537.36 Edg/93.0.961.38",WebKit,Edge,93.0.961.38,Windows,10.0,ac0f2dffeffaa78d35a552e03d03f0a8
22,3,"""",test_procedure,fixation,html-keyboard-response,75,138512,0.0-11.0-0.0-0.9,3PKVGQTFJQLSZOM7OKJDU84QFXXYRA,A1YSYI926BBOHW,3PIWWX1FJS7OTV5OKHE36EZZVXXJJZ,FWIP4,FWIP4,3PIWWX1FJS7OTV5OKHE36EZZVXXJJZ,3PIWWX1FJS7OTV5OKHE36EZZVXXJJZ,338054,338054,3,0.06,"""",null,null,"<div class = fixationbox><div class = fixation>+</div></div>","""","""","""","""","""","""","""","""","2021-12-31 04:15:26",73.189.186.35,"Mozilla/5.0 (Windows NT 10.0; Win64; x64) AppleWebKit/537.36 (KHTML, like Gecko) Chrome/94.0.4606.54 Safari/537.36 Edg/93.0.961.38",WebKit,Edge,93.0.961.38,Windows,10.0,ac0f2dffeffaa78d35a552e03d03f0a8
22,3,"""",test_procedure,stim_test,canvas-button-response,76,140021,0.0-11.0-0.0-1.9,3PKVGQTFJQLSZOM7OKJDU84QFXXYRA,A1YSYI926BBOHW,3PIWWX1FJS7OTV5OKHE36EZZVXXJJZ,FWIP4,FWIP4,3PIWWX1FJS7OTV5OKHE36EZZVXXJJZ,3PIWWX1FJS7OTV5OKHE36EZZVXXJJZ,338054,338054,3,0.06,"""",1477.300000011921,0,stim2,0,Counter-clockwise,true,"""",0.01,120,"""","""","2021-12-31 04:15:26",73.189.186.35,"Mozilla/5.0 (Windows NT 10.0; Win64; x64) AppleWebKit/537.36 (KHTML, like Gecko) Chrome/94.0.4606.54 Safari/537.36 Edg/93.0.961.38",WebKit,Edge,93.0.961.38,Windows,10.0,ac0f2dffeffaa78d35a552e03d03f0a8
22,3,"""",test_procedure,confidence_rating,html-slider-response,77,141502,0.0-11.0-0.0-2.9,3PKVGQTFJQLSZOM7OKJDU84QFXXYRA,A1YSYI926BBOHW,3PIWWX1FJS7OTV5OKHE36EZZVXXJJZ,FWIP4,FWIP4,3PIWWX1FJS7OTV5OKHE36EZZVXXJJZ,3PIWWX1FJS7OTV5OKHE36EZZVXXJJZ,338054,338054,3,0.06,"""",1479.800000011921,53,"<div id=""message-div""><p>How confident are you that your clockwise/counter-clockwise response just now was accurate? Please rate your confidence on the slider bar below.</p></div>","""","""","""",50,"""","""","""",53,"2021-12-31 04:15:26",73.189.186.35,"Mozilla/5.0 (Windows NT 10.0; Win64; x64) AppleWebKit/537.36 (KHTML, like Gecko) Chrome/94.0.4606.54 Safari/537.36 Edg/93.0.961.38",WebKit,Edge,93.0.961.38,Windows,10.0,ac0f2dffeffaa78d35a552e03d03f0a8
22,3,"""",test_procedure,fixation,html-keyboard-response,78,142003,0.0-11.0-0.0-0.10,3PKVGQTFJQLSZOM7OKJDU84QFXXYRA,A1YSYI926BBOHW,3PIWWX1FJS7OTV5OKHE36EZZVXXJJZ,FWIP4,FWIP4,3PIWWX1FJS7OTV5OKHE36EZZVXXJJZ,3PIWWX1FJS7OTV5OKHE36EZZVXXJJZ,338054,338054,3,0.06,"""",null,null,"<div class = fixationbox><div class = fixation>+</div></div>","""","""","""","""","""","""","""","""","2021-12-31 04:15:26",73.189.186.35,"Mozilla/5.0 (Windows NT 10.0; Win64; x64) AppleWebKit/537.36 (KHTML, like Gecko) Chrome/94.0.4606.54 Safari/537.36 Edg/93.0.961.38",WebKit,Edge,93.0.961.38,Windows,10.0,ac0f2dffeffaa78d35a552e03d03f0a8
22,3,"""",test_procedure,stim_test,canvas-button-response,79,143435,0.0-11.0-0.0-1.10,3PKVGQTFJQLSZOM7OKJDU84QFXXYRA,A1YSYI926BBOHW,3PIWWX1FJS7OTV5OKHE36EZZVXXJJZ,FWIP4,FWIP4,3PIWWX1FJS7OTV5OKHE36EZZVXXJJZ,3PIWWX1FJS7OTV5OKHE36EZZVXXJJZ,338054,338054,3,0.06,"""",1397,1,stim1,1,Clockwise,true,"""",0.01,60,"""","""","2021-12-31 04:15:26",73.189.186.35,"Mozilla/5.0 (Windows NT 10.0; Win64; x64) AppleWebKit/537.36 (KHTML, like Gecko) Chrome/94.0.4606.54 Safari/537.36 Edg/93.0.961.38",WebKit,Edge,93.0.961.38,Windows,10.0,ac0f2dffeffaa78d35a552e03d03f0a8
22,3,"""",test_procedure,confidence_rating,html-slider-response,80,144267,0.0-11.0-0.0-2.10,3PKVGQTFJQLSZOM7OKJDU84QFXXYRA,A1YSYI926BBOHW,3PIWWX1FJS7OTV5OKHE36EZZVXXJJZ,FWIP4,FWIP4,3PIWWX1FJS7OTV5OKHE36EZZVXXJJZ,3PIWWX1FJS7OTV5OKHE36EZZVXXJJZ,338054,338054,3,0.06,"""",831.3000000119209,79,"<div id=""message-div""><p>How confident are you that your clockwise/counter-clockwise response just now was accurate? Please rate your confidence on the slider bar below.</p></div>","""","""","""",50,"""","""","""",79,"2021-12-31 04:15:26",73.189.186.35,"Mozilla/5.0 (Windows NT 10.0; Win64; x64) AppleWebKit/537.36 (KHTML, like Gecko) Chrome/94.0.4606.54 Safari/537.36 Edg/93.0.961.38",WebKit,Edge,93.0.961.38,Windows,10.0,ac0f2dffeffaa78d35a552e03d03f0a8
22,3,"""",test_procedure,fixation,html-keyboard-response,81,144769,0.0-11.0-0.0-0.11,3PKVGQTFJQLSZOM7OKJDU84QFXXYRA,A1YSYI926BBOHW,3PIWWX1FJS7OTV5OKHE36EZZVXXJJZ,FWIP4,FWIP4,3PIWWX1FJS7OTV5OKHE36EZZVXXJJZ,3PIWWX1FJS7OTV5OKHE36EZZVXXJJZ,338054,338054,3,0.06,"""",null,null,"<div class = fixationbox><div class = fixation>+</div></div>","""","""","""","""","""","""","""","""","2021-12-31 04:15:26",73.189.186.35,"Mozilla/5.0 (Windows NT 10.0; Win64; x64) AppleWebKit/537.36 (KHTML, like Gecko) Chrome/94.0.4606.54 Safari/537.36 Edg/93.0.961.38",WebKit,Edge,93.0.961.38,Windows,10.0,ac0f2dffeffaa78d35a552e03d03f0a8
22,3,"""",test_procedure,stim_test,canvas-button-response,82,146442,0.0-11.0-0.0-1.11,3PKVGQTFJQLSZOM7OKJDU84QFXXYRA,A1YSYI926BBOHW,3PIWWX1FJS7OTV5OKHE36EZZVXXJJZ,FWIP4,FWIP4,3PIWWX1FJS7OTV5OKHE36EZZVXXJJZ,3PIWWX1FJS7OTV5OKHE36EZZVXXJJZ,338054,338054,3,0.06,"""",1598.800000011921,1,stim3,1,Clockwise,true,"""",0.3,60,"""","""","2021-12-31 04:15:26",73.189.186.35,"Mozilla/5.0 (Windows NT 10.0; Win64; x64) AppleWebKit/537.36 (KHTML, like Gecko) Chrome/94.0.4606.54 Safari/537.36 Edg/93.0.961.38",WebKit,Edge,93.0.961.38,Windows,10.0,ac0f2dffeffaa78d35a552e03d03f0a8
22,3,"""",test_procedure,confidence_rating,html-slider-response,83,147692,0.0-11.0-0.0-2.11,3PKVGQTFJQLSZOM7OKJDU84QFXXYRA,A1YSYI926BBOHW,3PIWWX1FJS7OTV5OKHE36EZZVXXJJZ,FWIP4,FWIP4,3PIWWX1FJS7OTV5OKHE36EZZVXXJJZ,3PIWWX1FJS7OTV5OKHE36EZZVXXJJZ,338054,338054,3,0.06,"""",1248.3999999761581,92,"<div id=""message-div""><p>How confident are you that your clockwise/counter-clockwise response just now was accurate? Please rate your confidence on the slider bar below.</p></div>","""","""","""",50,"""","""","""",92,"2021-12-31 04:15:26",73.189.186.35,"Mozilla/5.0 (Windows NT 10.0; Win64; x64) AppleWebKit/537.36 (KHTML, like Gecko) Chrome/94.0.4606.54 Safari/537.36 Edg/93.0.961.38",WebKit,Edge,93.0.961.38,Windows,10.0,ac0f2dffeffaa78d35a552e03d03f0a8
22,3,"""",test_procedure,fixation,html-keyboard-response,84,148194,0.0-11.0-0.0-0.12,3PKVGQTFJQLSZOM7OKJDU84QFXXYRA,A1YSYI926BBOHW,3PIWWX1FJS7OTV5OKHE36EZZVXXJJZ,FWIP4,FWIP4,3PIWWX1FJS7OTV5OKHE36EZZVXXJJZ,3PIWWX1FJS7OTV5OKHE36EZZVXXJJZ,338054,338054,3,0.06,"""",null,null,"<div class = fixationbox><div class = fixation>+</div></div>","""","""","""","""","""","""","""","""","2021-12-31 04:15:26",73.189.186.35,"Mozilla/5.0 (Windows NT 10.0; Win64; x64) AppleWebKit/537.36 (KHTML, like Gecko) Chrome/94.0.4606.54 Safari/537.36 Edg/93.0.961.38",WebKit,Edge,93.0.961.38,Windows,10.0,ac0f2dffeffaa78d35a552e03d03f0a8
22,3,"""",test_procedure,stim_test,canvas-button-response,85,149322,0.0-11.0-0.0-1.12,3PKVGQTFJQLSZOM7OKJDU84QFXXYRA,A1YSYI926BBOHW,3PIWWX1FJS7OTV5OKHE36EZZVXXJJZ,FWIP4,FWIP4,3PIWWX1FJS7OTV5OKHE36EZZVXXJJZ,3PIWWX1FJS7OTV5OKHE36EZZVXXJJZ,338054,338054,3,0.06,"""",1069.1000000238419,1,catchStim3,1,Clockwise,true,"""",0.01,60,0.001,"""","2021-12-31 04:15:26",73.189.186.35,"Mozilla/5.0 (Windows NT 10.0; Win64; x64) AppleWebKit/537.36 (KHTML, like Gecko) Chrome/94.0.4606.54 Safari/537.36 Edg/93.0.961.38",WebKit,Edge,93.0.961.38,Windows,10.0,ac0f2dffeffaa78d35a552e03d03f0a8
22,3,"""",test_procedure,confidence_rating,html-slider-response,86,150306,0.0-11.0-0.0-2.12,3PKVGQTFJQLSZOM7OKJDU84QFXXYRA,A1YSYI926BBOHW,3PIWWX1FJS7OTV5OKHE36EZZVXXJJZ,FWIP4,FWIP4,3PIWWX1FJS7OTV5OKHE36EZZVXXJJZ,3PIWWX1FJS7OTV5OKHE36EZZVXXJJZ,338054,338054,3,0.06,"""",982.8999999761581,2,"<div id=""message-div""><p>How confident are you that your clockwise/counter-clockwise response just now was accurate? Please rate your confidence on the slider bar below.</p></div>","""","""","""",50,"""","""","""",2,"2021-12-31 04:15:26",73.189.186.35,"Mozilla/5.0 (Windows NT 10.0; Win64; x64) AppleWebKit/537.36 (KHTML, like Gecko) Chrome/94.0.4606.54 Safari/537.36 Edg/93.0.961.38",WebKit,Edge,93.0.961.38,Windows,10.0,ac0f2dffeffaa78d35a552e03d03f0a8
22,3,"""",test_procedure,fixation,html-keyboard-response,87,150808,0.0-11.0-0.0-0.13,3PKVGQTFJQLSZOM7OKJDU84QFXXYRA,A1YSYI926BBOHW,3PIWWX1FJS7OTV5OKHE36EZZVXXJJZ,FWIP4,FWIP4,3PIWWX1FJS7OTV5OKHE36EZZVXXJJZ,3PIWWX1FJS7OTV5OKHE36EZZVXXJJZ,338054,338054,3,0.06,"""",null,null,"<div class = fixationbox><div class = fixation>+</div></div>","""","""","""","""","""","""","""","""","2021-12-31 04:15:26",73.189.186.35,"Mozilla/5.0 (Windows NT 10.0; Win64; x64) AppleWebKit/537.36 (KHTML, like Gecko) Chrome/94.0.4606.54 Safari/537.36 Edg/93.0.961.38",WebKit,Edge,93.0.961.38,Windows,10.0,ac0f2dffeffaa78d35a552e03d03f0a8
22,3,"""",test_procedure,stim_test,canvas-button-response,88,152104,0.0-11.0-0.0-1.13,3PKVGQTFJQLSZOM7OKJDU84QFXXYRA,A1YSYI926BBOHW,3PIWWX1FJS7OTV5OKHE36EZZVXXJJZ,FWIP4,FWIP4,3PIWWX1FJS7OTV5OKHE36EZZVXXJJZ,3PIWWX1FJS7OTV5OKHE36EZZVXXJJZ,338054,338054,3,0.06,"""",1252.6000000238419,1,catchStim1,1,Clockwise,true,"""",0.01,60,0.6,"""","2021-12-31 04:15:26",73.189.186.35,"Mozilla/5.0 (Windows NT 10.0; Win64; x64) AppleWebKit/537.36 (KHTML, like Gecko) Chrome/94.0.4606.54 Safari/537.36 Edg/93.0.961.38",WebKit,Edge,93.0.961.38,Windows,10.0,ac0f2dffeffaa78d35a552e03d03f0a8
22,3,"""",test_procedure,confidence_rating,html-slider-response,89,158681,0.0-11.0-0.0-2.13,3PKVGQTFJQLSZOM7OKJDU84QFXXYRA,A1YSYI926BBOHW,3PIWWX1FJS7OTV5OKHE36EZZVXXJJZ,FWIP4,FWIP4,3PIWWX1FJS7OTV5OKHE36EZZVXXJJZ,3PIWWX1FJS7OTV5OKHE36EZZVXXJJZ,338054,338054,3,0.06,"""",6574.800000011921,99,"<div id=""message-div""><p>How confident are you that your clockwise/counter-clockwise response just now was accurate? Please rate your confidence on the slider bar below.</p></div>","""","""","""",50,"""","""","""",99,"2021-12-31 04:15:26",73.189.186.35,"Mozilla/5.0 (Windows NT 10.0; Win64; x64) AppleWebKit/537.36 (KHTML, like Gecko) Chrome/94.0.4606.54 Safari/537.36 Edg/93.0.961.38",WebKit,Edge,93.0.961.38,Windows,10.0,ac0f2dffeffaa78d35a552e03d03f0a8
22,3,"""",test_procedure,fixation,html-keyboard-response,90,159185,0.0-11.0-0.0-0.14,3PKVGQTFJQLSZOM7OKJDU84QFXXYRA,A1YSYI926BBOHW,3PIWWX1FJS7OTV5OKHE36EZZVXXJJZ,FWIP4,FWIP4,3PIWWX1FJS7OTV5OKHE36EZZVXXJJZ,3PIWWX1FJS7OTV5OKHE36EZZVXXJJZ,338054,338054,3,0.06,"""",null,null,"<div class = fixationbox><div class = fixation>+</div></div>","""","""","""","""","""","""","""","""","2021-12-31 04:15:26",73.189.186.35,"Mozilla/5.0 (Windows NT 10.0; Win64; x64) AppleWebKit/537.36 (KHTML, like Gecko) Chrome/94.0.4606.54 Safari/537.36 Edg/93.0.961.38",WebKit,Edge,93.0.961.38,Windows,10.0,ac0f2dffeffaa78d35a552e03d03f0a8
22,3,"""",test_procedure,stim_test,canvas-button-response,91,160212,0.0-11.0-0.0-1.14,3PKVGQTFJQLSZOM7OKJDU84QFXXYRA,A1YSYI926BBOHW,3PIWWX1FJS7OTV5OKHE36EZZVXXJJZ,FWIP4,FWIP4,3PIWWX1FJS7OTV5OKHE36EZZVXXJJZ,3PIWWX1FJS7OTV5OKHE36EZZVXXJJZ,338054,338054,3,0.06,"""",980.6000000238419,0,stim2,0,Counter-clockwise,true,"""",0.01,120,"""","""","2021-12-31 04:15:26",73.189.186.35,"Mozilla/5.0 (Windows NT 10.0; Win64; x64) AppleWebKit/537.36 (KHTML, like Gecko) Chrome/94.0.4606.54 Safari/537.36 Edg/93.0.961.38",WebKit,Edge,93.0.961.38,Windows,10.0,ac0f2dffeffaa78d35a552e03d03f0a8
22,3,"""",test_procedure,confidence_rating,html-slider-response,92,161467,0.0-11.0-0.0-2.14,3PKVGQTFJQLSZOM7OKJDU84QFXXYRA,A1YSYI926BBOHW,3PIWWX1FJS7OTV5OKHE36EZZVXXJJZ,FWIP4,FWIP4,3PIWWX1FJS7OTV5OKHE36EZZVXXJJZ,3PIWWX1FJS7OTV5OKHE36EZZVXXJJZ,338054,338054,3,0.06,"""",1254.1000000238419,82,"<div id=""message-div""><p>How confident are you that your clockwise/counter-clockwise response just now was accurate? Please rate your confidence on the slider bar below.</p></div>","""","""","""",50,"""","""","""",82,"2021-12-31 04:15:26",73.189.186.35,"Mozilla/5.0 (Windows NT 10.0; Win64; x64) AppleWebKit/537.36 (KHTML, like Gecko) Chrome/94.0.4606.54 Safari/537.36 Edg/93.0.961.38",WebKit,Edge,93.0.961.38,Windows,10.0,ac0f2dffeffaa78d35a552e03d03f0a8
22,3,"""",test_procedure,fixation,html-keyboard-response,93,161969,0.0-11.0-0.0-0.15,3PKVGQTFJQLSZOM7OKJDU84QFXXYRA,A1YSYI926BBOHW,3PIWWX1FJS7OTV5OKHE36EZZVXXJJZ,FWIP4,FWIP4,3PIWWX1FJS7OTV5OKHE36EZZVXXJJZ,3PIWWX1FJS7OTV5OKHE36EZZVXXJJZ,338054,338054,3,0.06,"""",null,null,"<div class = fixationbox><div class = fixation>+</div></div>","""","""","""","""","""","""","""","""","2021-12-31 04:15:26",73.189.186.35,"Mozilla/5.0 (Windows NT 10.0; Win64; x64) AppleWebKit/537.36 (KHTML, like Gecko) Chrome/94.0.4606.54 Safari/537.36 Edg/93.0.961.38",WebKit,Edge,93.0.961.38,Windows,10.0,ac0f2dffeffaa78d35a552e03d03f0a8
22,3,"""",test_procedure,stim_test,canvas-button-response,94,162987,0.0-11.0-0.0-1.15,3PKVGQTFJQLSZOM7OKJDU84QFXXYRA,A1YSYI926BBOHW,3PIWWX1FJS7OTV5OKHE36EZZVXXJJZ,FWIP4,FWIP4,3PIWWX1FJS7OTV5OKHE36EZZVXXJJZ,3PIWWX1FJS7OTV5OKHE36EZZVXXJJZ,338054,338054,3,0.06,"""",921.3999999761581,1,stim3,1,Clockwise,true,"""",0.3,60,"""","""","2021-12-31 04:15:26",73.189.186.35,"Mozilla/5.0 (Windows NT 10.0; Win64; x64) AppleWebKit/537.36 (KHTML, like Gecko) Chrome/94.0.4606.54 Safari/537.36 Edg/93.0.961.38",WebKit,Edge,93.0.961.38,Windows,10.0,ac0f2dffeffaa78d35a552e03d03f0a8
22,3,"""",test_procedure,confidence_rating,html-slider-response,95,163918,0.0-11.0-0.0-2.15,3PKVGQTFJQLSZOM7OKJDU84QFXXYRA,A1YSYI926BBOHW,3PIWWX1FJS7OTV5OKHE36EZZVXXJJZ,FWIP4,FWIP4,3PIWWX1FJS7OTV5OKHE36EZZVXXJJZ,3PIWWX1FJS7OTV5OKHE36EZZVXXJJZ,338054,338054,3,0.06,"""",929.3000000119209,93,"<div id=""message-div""><p>How confident are you that your clockwise/counter-clockwise response just now was accurate? Please rate your confidence on the slider bar below.</p></div>","""","""","""",50,"""","""","""",93,"2021-12-31 04:15:26",73.189.186.35,"Mozilla/5.0 (Windows NT 10.0; Win64; x64) AppleWebKit/537.36 (KHTML, like Gecko) Chrome/94.0.4606.54 Safari/537.36 Edg/93.0.961.38",WebKit,Edge,93.0.961.38,Windows,10.0,ac0f2dffeffaa78d35a552e03d03f0a8
22,3,"""",test_procedure,fixation,html-keyboard-response,96,164420,0.0-11.0-0.0-0.16,3PKVGQTFJQLSZOM7OKJDU84QFXXYRA,A1YSYI926BBOHW,3PIWWX1FJS7OTV5OKHE36EZZVXXJJZ,FWIP4,FWIP4,3PIWWX1FJS7OTV5OKHE36EZZVXXJJZ,3PIWWX1FJS7OTV5OKHE36EZZVXXJJZ,338054,338054,3,0.06,"""",null,null,"<div class = fixationbox><div class = fixation>+</div></div>","""","""","""","""","""","""","""","""","2021-12-31 04:15:26",73.189.186.35,"Mozilla/5.0 (Windows NT 10.0; Win64; x64) AppleWebKit/537.36 (KHTML, like Gecko) Chrome/94.0.4606.54 Safari/537.36 Edg/93.0.961.38",WebKit,Edge,93.0.961.38,Windows,10.0,ac0f2dffeffaa78d35a552e03d03f0a8
22,3,"""",test_procedure,stim_test,canvas-button-response,97,165560,0.0-11.0-0.0-1.16,3PKVGQTFJQLSZOM7OKJDU84QFXXYRA,A1YSYI926BBOHW,3PIWWX1FJS7OTV5OKHE36EZZVXXJJZ,FWIP4,FWIP4,3PIWWX1FJS7OTV5OKHE36EZZVXXJJZ,3PIWWX1FJS7OTV5OKHE36EZZVXXJJZ,338054,338054,3,0.06,"""",1109,0,catchStim6,0,Counter-clockwise,true,"""",0.3,120,0.6,"""","2021-12-31 04:15:26",73.189.186.35,"Mozilla/5.0 (Windows NT 10.0; Win64; x64) AppleWebKit/537.36 (KHTML, like Gecko) Chrome/94.0.4606.54 Safari/537.36 Edg/93.0.961.38",WebKit,Edge,93.0.961.38,Windows,10.0,ac0f2dffeffaa78d35a552e03d03f0a8
22,3,"""",test_procedure,confidence_rating,html-slider-response,98,167263,0.0-11.0-0.0-2.16,3PKVGQTFJQLSZOM7OKJDU84QFXXYRA,A1YSYI926BBOHW,3PIWWX1FJS7OTV5OKHE36EZZVXXJJZ,FWIP4,FWIP4,3PIWWX1FJS7OTV5OKHE36EZZVXXJJZ,3PIWWX1FJS7OTV5OKHE36EZZVXXJJZ,338054,338054,3,0.06,"""",1702.3999999761581,93,"<div id=""message-div""><p>How confident are you that your clockwise/counter-clockwise response just now was accurate? Please rate your confidence on the slider bar below.</p></div>","""","""","""",50,"""","""","""",93,"2021-12-31 04:15:26",73.189.186.35,"Mozilla/5.0 (Windows NT 10.0; Win64; x64) AppleWebKit/537.36 (KHTML, like Gecko) Chrome/94.0.4606.54 Safari/537.36 Edg/93.0.961.38",WebKit,Edge,93.0.961.38,Windows,10.0,ac0f2dffeffaa78d35a552e03d03f0a8
22,3,"""",test_procedure,fixation,html-keyboard-response,99,167764,0.0-11.0-0.0-0.17,3PKVGQTFJQLSZOM7OKJDU84QFXXYRA,A1YSYI926BBOHW,3PIWWX1FJS7OTV5OKHE36EZZVXXJJZ,FWIP4,FWIP4,3PIWWX1FJS7OTV5OKHE36EZZVXXJJZ,3PIWWX1FJS7OTV5OKHE36EZZVXXJJZ,338054,338054,3,0.06,"""",null,null,"<div class = fixationbox><div class = fixation>+</div></div>","""","""","""","""","""","""","""","""","2021-12-31 04:15:26",73.189.186.35,"Mozilla/5.0 (Windows NT 10.0; Win64; x64) AppleWebKit/537.36 (KHTML, like Gecko) Chrome/94.0.4606.54 Safari/537.36 Edg/93.0.961.38",WebKit,Edge,93.0.961.38,Windows,10.0,ac0f2dffeffaa78d35a552e03d03f0a8
22,3,"""",test_procedure,stim_test,canvas-button-response,100,168891,0.0-11.0-0.0-1.17,3PKVGQTFJQLSZOM7OKJDU84QFXXYRA,A1YSYI926BBOHW,3PIWWX1FJS7OTV5OKHE36EZZVXXJJZ,FWIP4,FWIP4,3PIWWX1FJS7OTV5OKHE36EZZVXXJJZ,3PIWWX1FJS7OTV5OKHE36EZZVXXJJZ,338054,338054,3,0.06,"""",1089.199999988079,0,stim4,0,Counter-clockwise,true,"""",0.3,120,"""","""","2021-12-31 04:15:26",73.189.186.35,"Mozilla/5.0 (Windows NT 10.0; Win64; x64) AppleWebKit/537.36 (KHTML, like Gecko) Chrome/94.0.4606.54 Safari/537.36 Edg/93.0.961.38",WebKit,Edge,93.0.961.38,Windows,10.0,ac0f2dffeffaa78d35a552e03d03f0a8
22,3,"""",test_procedure,confidence_rating,html-slider-response,101,170324,0.0-11.0-0.0-2.17,3PKVGQTFJQLSZOM7OKJDU84QFXXYRA,A1YSYI926BBOHW,3PIWWX1FJS7OTV5OKHE36EZZVXXJJZ,FWIP4,FWIP4,3PIWWX1FJS7OTV5OKHE36EZZVXXJJZ,3PIWWX1FJS7OTV5OKHE36EZZVXXJJZ,338054,338054,3,0.06,"""",1432.300000011921,13,"<div id=""message-div""><p>How confident are you that your clockwise/counter-clockwise response just now was accurate? Please rate your confidence on the slider bar below.</p></div>","""","""","""",50,"""","""","""",13,"2021-12-31 04:15:26",73.189.186.35,"Mozilla/5.0 (Windows NT 10.0; Win64; x64) AppleWebKit/537.36 (KHTML, like Gecko) Chrome/94.0.4606.54 Safari/537.36 Edg/93.0.961.38",WebKit,Edge,93.0.961.38,Windows,10.0,ac0f2dffeffaa78d35a552e03d03f0a8
22,3,"""",test_procedure,fixation,html-keyboard-response,102,170827,0.0-11.0-0.0-0.18,3PKVGQTFJQLSZOM7OKJDU84QFXXYRA,A1YSYI926BBOHW,3PIWWX1FJS7OTV5OKHE36EZZVXXJJZ,FWIP4,FWIP4,3PIWWX1FJS7OTV5OKHE36EZZVXXJJZ,3PIWWX1FJS7OTV5OKHE36EZZVXXJJZ,338054,338054,3,0.06,"""",null,null,"<div class = fixationbox><div class = fixation>+</div></div>","""","""","""","""","""","""","""","""","2021-12-31 04:15:26",73.189.186.35,"Mozilla/5.0 (Windows NT 10.0; Win64; x64) AppleWebKit/537.36 (KHTML, like Gecko) Chrome/94.0.4606.54 Safari/537.36 Edg/93.0.961.38",WebKit,Edge,93.0.961.38,Windows,10.0,ac0f2dffeffaa78d35a552e03d03f0a8
22,3,"""",test_procedure,stim_test,canvas-button-response,103,171884,0.0-11.0-0.0-1.18,3PKVGQTFJQLSZOM7OKJDU84QFXXYRA,A1YSYI926BBOHW,3PIWWX1FJS7OTV5OKHE36EZZVXXJJZ,FWIP4,FWIP4,3PIWWX1FJS7OTV5OKHE36EZZVXXJJZ,3PIWWX1FJS7OTV5OKHE36EZZVXXJJZ,338054,338054,3,0.06,"""",1019.6000000238419,0,stim4,0,Counter-clockwise,true,"""",0.3,120,"""","""","2021-12-31 04:15:26",73.189.186.35,"Mozilla/5.0 (Windows NT 10.0; Win64; x64) AppleWebKit/537.36 (KHTML, like Gecko) Chrome/94.0.4606.54 Safari/537.36 Edg/93.0.961.38",WebKit,Edge,93.0.961.38,Windows,10.0,ac0f2dffeffaa78d35a552e03d03f0a8
22,3,"""",test_procedure,confidence_rating,html-slider-response,104,172796,0.0-11.0-0.0-2.18,3PKVGQTFJQLSZOM7OKJDU84QFXXYRA,A1YSYI926BBOHW,3PIWWX1FJS7OTV5OKHE36EZZVXXJJZ,FWIP4,FWIP4,3PIWWX1FJS7OTV5OKHE36EZZVXXJJZ,3PIWWX1FJS7OTV5OKHE36EZZVXXJJZ,338054,338054,3,0.06,"""",910.9000000357628,10,"<div id=""message-div""><p>How confident are you that your clockwise/counter-clockwise response just now was accurate? Please rate your confidence on the slider bar below.</p></div>","""","""","""",50,"""","""","""",10,"2021-12-31 04:15:26",73.189.186.35,"Mozilla/5.0 (Windows NT 10.0; Win64; x64) AppleWebKit/537.36 (KHTML, like Gecko) Chrome/94.0.4606.54 Safari/537.36 Edg/93.0.961.38",WebKit,Edge,93.0.961.38,Windows,10.0,ac0f2dffeffaa78d35a552e03d03f0a8
22,3,"""",test_procedure,fixation,html-keyboard-response,105,173299,0.0-11.0-0.0-0.19,3PKVGQTFJQLSZOM7OKJDU84QFXXYRA,A1YSYI926BBOHW,3PIWWX1FJS7OTV5OKHE36EZZVXXJJZ,FWIP4,FWIP4,3PIWWX1FJS7OTV5OKHE36EZZVXXJJZ,3PIWWX1FJS7OTV5OKHE36EZZVXXJJZ,338054,338054,3,0.06,"""",null,null,"<div class = fixationbox><div class = fixation>+</div></div>","""","""","""","""","""","""","""","""","2021-12-31 04:15:26",73.189.186.35,"Mozilla/5.0 (Windows NT 10.0; Win64; x64) AppleWebKit/537.36 (KHTML, like Gecko) Chrome/94.0.4606.54 Safari/537.36 Edg/93.0.961.38",WebKit,Edge,93.0.961.38,Windows,10.0,ac0f2dffeffaa78d35a552e03d03f0a8
22,3,"""",test_procedure,stim_test,canvas-button-response,106,174314,0.0-11.0-0.0-1.19,3PKVGQTFJQLSZOM7OKJDU84QFXXYRA,A1YSYI926BBOHW,3PIWWX1FJS7OTV5OKHE36EZZVXXJJZ,FWIP4,FWIP4,3PIWWX1FJS7OTV5OKHE36EZZVXXJJZ,3PIWWX1FJS7OTV5OKHE36EZZVXXJJZ,338054,338054,3,0.06,"""",904,0,catchStim2,0,Counter-clockwise,true,"""",0.01,120,0.6,"""","2021-12-31 04:15:26",73.189.186.35,"Mozilla/5.0 (Windows NT 10.0; Win64; x64) AppleWebKit/537.36 (KHTML, like Gecko) Chrome/94.0.4606.54 Safari/537.36 Edg/93.0.961.38",WebKit,Edge,93.0.961.38,Windows,10.0,ac0f2dffeffaa78d35a552e03d03f0a8
22,3,"""",test_procedure,confidence_rating,html-slider-response,107,175863,0.0-11.0-0.0-2.19,3PKVGQTFJQLSZOM7OKJDU84QFXXYRA,A1YSYI926BBOHW,3PIWWX1FJS7OTV5OKHE36EZZVXXJJZ,FWIP4,FWIP4,3PIWWX1FJS7OTV5OKHE36EZZVXXJJZ,3PIWWX1FJS7OTV5OKHE36EZZVXXJJZ,338054,338054,3,0.06,"""",1547.8999999761581,100,"<div id=""message-div""><p>How confident are you that your clockwise/counter-clockwise response just now was accurate? Please rate your confidence on the slider bar below.</p></div>","""","""","""",50,"""","""","""",100,"2021-12-31 04:15:26",73.189.186.35,"Mozilla/5.0 (Windows NT 10.0; Win64; x64) AppleWebKit/537.36 (KHTML, like Gecko) Chrome/94.0.4606.54 Safari/537.36 Edg/93.0.961.38",WebKit,Edge,93.0.961.38,Windows,10.0,ac0f2dffeffaa78d35a552e03d03f0a8
22,3,"""",test_procedure,fixation,html-keyboard-response,108,176365,0.0-11.0-0.0-0.20,3PKVGQTFJQLSZOM7OKJDU84QFXXYRA,A1YSYI926BBOHW,3PIWWX1FJS7OTV5OKHE36EZZVXXJJZ,FWIP4,FWIP4,3PIWWX1FJS7OTV5OKHE36EZZVXXJJZ,3PIWWX1FJS7OTV5OKHE36EZZVXXJJZ,338054,338054,3,0.06,"""",null,null,"<div class = fixationbox><div class = fixation>+</div></div>","""","""","""","""","""","""","""","""","2021-12-31 04:15:26",73.189.186.35,"Mozilla/5.0 (Windows NT 10.0; Win64; x64) AppleWebKit/537.36 (KHTML, like Gecko) Chrome/94.0.4606.54 Safari/537.36 Edg/93.0.961.38",WebKit,Edge,93.0.961.38,Windows,10.0,ac0f2dffeffaa78d35a552e03d03f0a8
22,3,"""",test_procedure,stim_test,canvas-button-response,109,177358,0.0-11.0-0.0-1.20,3PKVGQTFJQLSZOM7OKJDU84QFXXYRA,A1YSYI926BBOHW,3PIWWX1FJS7OTV5OKHE36EZZVXXJJZ,FWIP4,FWIP4,3PIWWX1FJS7OTV5OKHE36EZZVXXJJZ,3PIWWX1FJS7OTV5OKHE36EZZVXXJJZ,338054,338054,3,0.06,"""",926.8000000119209,1,stim1,1,Clockwise,true,"""",0.01,60,"""","""","2021-12-31 04:15:26",73.189.186.35,"Mozilla/5.0 (Windows NT 10.0; Win64; x64) AppleWebKit/537.36 (KHTML, like Gecko) Chrome/94.0.4606.54 Safari/537.36 Edg/93.0.961.38",WebKit,Edge,93.0.961.38,Windows,10.0,ac0f2dffeffaa78d35a552e03d03f0a8
22,3,"""",test_procedure,confidence_rating,html-slider-response,110,178555,0.0-11.0-0.0-2.20,3PKVGQTFJQLSZOM7OKJDU84QFXXYRA,A1YSYI926BBOHW,3PIWWX1FJS7OTV5OKHE36EZZVXXJJZ,FWIP4,FWIP4,3PIWWX1FJS7OTV5OKHE36EZZVXXJJZ,3PIWWX1FJS7OTV5OKHE36EZZVXXJJZ,338054,338054,3,0.06,"""",1194.800000011921,54,"<div id=""message-div""><p>How confident are you that your clockwise/counter-clockwise response just now was accurate? Please rate your confidence on the slider bar below.</p></div>","""","""","""",50,"""","""","""",54,"2021-12-31 04:15:26",73.189.186.35,"Mozilla/5.0 (Windows NT 10.0; Win64; x64) AppleWebKit/537.36 (KHTML, like Gecko) Chrome/94.0.4606.54 Safari/537.36 Edg/93.0.961.38",WebKit,Edge,93.0.961.38,Windows,10.0,ac0f2dffeffaa78d35a552e03d03f0a8
22,3,"""",test_procedure,fixation,html-keyboard-response,111,179057,0.0-11.0-0.0-0.21,3PKVGQTFJQLSZOM7OKJDU84QFXXYRA,A1YSYI926BBOHW,3PIWWX1FJS7OTV5OKHE36EZZVXXJJZ,FWIP4,FWIP4,3PIWWX1FJS7OTV5OKHE36EZZVXXJJZ,3PIWWX1FJS7OTV5OKHE36EZZVXXJJZ,338054,338054,3,0.06,"""",null,null,"<div class = fixationbox><div class = fixation>+</div></div>","""","""","""","""","""","""","""","""","2021-12-31 04:15:26",73.189.186.35,"Mozilla/5.0 (Windows NT 10.0; Win64; x64) AppleWebKit/537.36 (KHTML, like Gecko) Chrome/94.0.4606.54 Safari/537.36 Edg/93.0.961.38",WebKit,Edge,93.0.961.38,Windows,10.0,ac0f2dffeffaa78d35a552e03d03f0a8
22,3,"""",test_procedure,stim_test,canvas-button-response,112,180149,0.0-11.0-0.0-1.21,3PKVGQTFJQLSZOM7OKJDU84QFXXYRA,A1YSYI926BBOHW,3PIWWX1FJS7OTV5OKHE36EZZVXXJJZ,FWIP4,FWIP4,3PIWWX1FJS7OTV5OKHE36EZZVXXJJZ,3PIWWX1FJS7OTV5OKHE36EZZVXXJJZ,338054,338054,3,0.06,"""",1054.699999988079,0,stim4,0,Counter-clockwise,true,"""",0.3,120,"""","""","2021-12-31 04:15:26",73.189.186.35,"Mozilla/5.0 (Windows NT 10.0; Win64; x64) AppleWebKit/537.36 (KHTML, like Gecko) Chrome/94.0.4606.54 Safari/537.36 Edg/93.0.961.38",WebKit,Edge,93.0.961.38,Windows,10.0,ac0f2dffeffaa78d35a552e03d03f0a8
22,3,"""",test_procedure,confidence_rating,html-slider-response,113,181673,0.0-11.0-0.0-2.21,3PKVGQTFJQLSZOM7OKJDU84QFXXYRA,A1YSYI926BBOHW,3PIWWX1FJS7OTV5OKHE36EZZVXXJJZ,FWIP4,FWIP4,3PIWWX1FJS7OTV5OKHE36EZZVXXJJZ,3PIWWX1FJS7OTV5OKHE36EZZVXXJJZ,338054,338054,3,0.06,"""",1523.300000011921,6,"<div id=""message-div""><p>How confident are you that your clockwise/counter-clockwise response just now was accurate? Please rate your confidence on the slider bar below.</p></div>","""","""","""",50,"""","""","""",6,"2021-12-31 04:15:26",73.189.186.35,"Mozilla/5.0 (Windows NT 10.0; Win64; x64) AppleWebKit/537.36 (KHTML, like Gecko) Chrome/94.0.4606.54 Safari/537.36 Edg/93.0.961.38",WebKit,Edge,93.0.961.38,Windows,10.0,ac0f2dffeffaa78d35a552e03d03f0a8
22,3,"""",test_procedure,fixation,html-keyboard-response,114,182175,0.0-11.0-0.0-0.22,3PKVGQTFJQLSZOM7OKJDU84QFXXYRA,A1YSYI926BBOHW,3PIWWX1FJS7OTV5OKHE36EZZVXXJJZ,FWIP4,FWIP4,3PIWWX1FJS7OTV5OKHE36EZZVXXJJZ,3PIWWX1FJS7OTV5OKHE36EZZVXXJJZ,338054,338054,3,0.06,"""",null,null,"<div class = fixationbox><div class = fixation>+</div></div>","""","""","""","""","""","""","""","""","2021-12-31 04:15:26",73.189.186.35,"Mozilla/5.0 (Windows NT 10.0; Win64; x64) AppleWebKit/537.36 (KHTML, like Gecko) Chrome/94.0.4606.54 Safari/537.36 Edg/93.0.961.38",WebKit,Edge,93.0.961.38,Windows,10.0,ac0f2dffeffaa78d35a552e03d03f0a8
22,3,"""",test_procedure,stim_test,canvas-button-response,115,183297,0.0-11.0-0.0-1.22,3PKVGQTFJQLSZOM7OKJDU84QFXXYRA,A1YSYI926BBOHW,3PIWWX1FJS7OTV5OKHE36EZZVXXJJZ,FWIP4,FWIP4,3PIWWX1FJS7OTV5OKHE36EZZVXXJJZ,3PIWWX1FJS7OTV5OKHE36EZZVXXJJZ,338054,338054,3,0.06,"""",1037.199999988079,0,catchStim7,1,Clockwise,false,"""",0.3,60,0.001,"""","2021-12-31 04:15:26",73.189.186.35,"Mozilla/5.0 (Windows NT 10.0; Win64; x64) AppleWebKit/537.36 (KHTML, like Gecko) Chrome/94.0.4606.54 Safari/537.36 Edg/93.0.961.38",WebKit,Edge,93.0.961.38,Windows,10.0,ac0f2dffeffaa78d35a552e03d03f0a8
22,3,"""",test_procedure,confidence_rating,html-slider-response,116,184454,0.0-11.0-0.0-2.22,3PKVGQTFJQLSZOM7OKJDU84QFXXYRA,A1YSYI926BBOHW,3PIWWX1FJS7OTV5OKHE36EZZVXXJJZ,FWIP4,FWIP4,3PIWWX1FJS7OTV5OKHE36EZZVXXJJZ,3PIWWX1FJS7OTV5OKHE36EZZVXXJJZ,338054,338054,3,0.06,"""",1155.6000000238419,6,"<div id=""message-div""><p>How confident are you that your clockwise/counter-clockwise response just now was accurate? Please rate your confidence on the slider bar below.</p></div>","""","""","""",50,"""","""","""",6,"2021-12-31 04:15:26",73.189.186.35,"Mozilla/5.0 (Windows NT 10.0; Win64; x64) AppleWebKit/537.36 (KHTML, like Gecko) Chrome/94.0.4606.54 Safari/537.36 Edg/93.0.961.38",WebKit,Edge,93.0.961.38,Windows,10.0,ac0f2dffeffaa78d35a552e03d03f0a8
22,3,"""",test_procedure,fixation,html-keyboard-response,117,184955,0.0-11.0-0.0-0.23,3PKVGQTFJQLSZOM7OKJDU84QFXXYRA,A1YSYI926BBOHW,3PIWWX1FJS7OTV5OKHE36EZZVXXJJZ,FWIP4,FWIP4,3PIWWX1FJS7OTV5OKHE36EZZVXXJJZ,3PIWWX1FJS7OTV5OKHE36EZZVXXJJZ,338054,338054,3,0.06,"""",null,null,"<div class = fixationbox><div class = fixation>+</div></div>","""","""","""","""","""","""","""","""","2021-12-31 04:15:26",73.189.186.35,"Mozilla/5.0 (Windows NT 10.0; Win64; x64) AppleWebKit/537.36 (KHTML, like Gecko) Chrome/94.0.4606.54 Safari/537.36 Edg/93.0.961.38",WebKit,Edge,93.0.961.38,Windows,10.0,ac0f2dffeffaa78d35a552e03d03f0a8
22,3,"""",test_procedure,stim_test,canvas-button-response,118,186127,0.0-11.0-0.0-1.23,3PKVGQTFJQLSZOM7OKJDU84QFXXYRA,A1YSYI926BBOHW,3PIWWX1FJS7OTV5OKHE36EZZVXXJJZ,FWIP4,FWIP4,3PIWWX1FJS7OTV5OKHE36EZZVXXJJZ,3PIWWX1FJS7OTV5OKHE36EZZVXXJJZ,338054,338054,3,0.06,"""",1143,1,stim3,1,Clockwise,true,"""",0.3,60,"""","""","2021-12-31 04:15:26",73.189.186.35,"Mozilla/5.0 (Windows NT 10.0; Win64; x64) AppleWebKit/537.36 (KHTML, like Gecko) Chrome/94.0.4606.54 Safari/537.36 Edg/93.0.961.38",WebKit,Edge,93.0.961.38,Windows,10.0,ac0f2dffeffaa78d35a552e03d03f0a8
22,3,"""",test_procedure,confidence_rating,html-slider-response,119,187338,0.0-11.0-0.0-2.23,3PKVGQTFJQLSZOM7OKJDU84QFXXYRA,A1YSYI926BBOHW,3PIWWX1FJS7OTV5OKHE36EZZVXXJJZ,FWIP4,FWIP4,3PIWWX1FJS7OTV5OKHE36EZZVXXJJZ,3PIWWX1FJS7OTV5OKHE36EZZVXXJJZ,338054,338054,3,0.06,"""",1209.7999999523163,5,"<div id=""message-div""><p>How confident are you that your clockwise/counter-clockwise response just now was accurate? Please rate your confidence on the slider bar below.</p></div>","""","""","""",50,"""","""","""",5,"2021-12-31 04:15:26",73.189.186.35,"Mozilla/5.0 (Windows NT 10.0; Win64; x64) AppleWebKit/537.36 (KHTML, like Gecko) Chrome/94.0.4606.54 Safari/537.36 Edg/93.0.961.38",WebKit,Edge,93.0.961.38,Windows,10.0,ac0f2dffeffaa78d35a552e03d03f0a8
22,3,"""",test_procedure,rest_block,html-button-response,120,192891,0.0-11.0-0.0-3.23-0.23,3PKVGQTFJQLSZOM7OKJDU84QFXXYRA,A1YSYI926BBOHW,3PIWWX1FJS7OTV5OKHE36EZZVXXJJZ,FWIP4,FWIP4,3PIWWX1FJS7OTV5OKHE36EZZVXXJJZ,3PIWWX1FJS7OTV5OKHE36EZZVXXJJZ,338054,338054,3,0.06,"""",5546.800000011921,0,"[""<p>You responded correctly on 91.67% of the trials in the previous section.</p><p>Time to take a break!</p><p>Once you're ready, press the \"Continue\" button to continue.</p>""]","""","""","""","""","""","""","""","""","2021-12-31 04:15:26",73.189.186.35,"Mozilla/5.0 (Windows NT 10.0; Win64; x64) AppleWebKit/537.36 (KHTML, like Gecko) Chrome/94.0.4606.54 Safari/537.36 Edg/93.0.961.38",WebKit,Edge,93.0.961.38,Windows,10.0,ac0f2dffeffaa78d35a552e03d03f0a8
22,3,"""",test_procedure,fixation,html-keyboard-response,121,193395,0.0-11.0-0.1-0.24,3PKVGQTFJQLSZOM7OKJDU84QFXXYRA,A1YSYI926BBOHW,3PIWWX1FJS7OTV5OKHE36EZZVXXJJZ,FWIP4,FWIP4,3PIWWX1FJS7OTV5OKHE36EZZVXXJJZ,3PIWWX1FJS7OTV5OKHE36EZZVXXJJZ,338054,338054,3,0.06,"""",null,null,"<div class = fixationbox><div class = fixation>+</div></div>","""","""","""","""","""","""","""","""","2021-12-31 04:15:26",73.189.186.35,"Mozilla/5.0 (Windows NT 10.0; Win64; x64) AppleWebKit/537.36 (KHTML, like Gecko) Chrome/94.0.4606.54 Safari/537.36 Edg/93.0.961.38",WebKit,Edge,93.0.961.38,Windows,10.0,ac0f2dffeffaa78d35a552e03d03f0a8
22,3,"""",test_procedure,stim_test,canvas-button-response,122,194976,0.0-11.0-0.1-1.24,3PKVGQTFJQLSZOM7OKJDU84QFXXYRA,A1YSYI926BBOHW,3PIWWX1FJS7OTV5OKHE36EZZVXXJJZ,FWIP4,FWIP4,3PIWWX1FJS7OTV5OKHE36EZZVXXJJZ,3PIWWX1FJS7OTV5OKHE36EZZVXXJJZ,338054,338054,3,0.06,"""",1501.7000000476837,0,stim2,0,Counter-clockwise,true,"""",0.01,120,"""","""","2021-12-31 04:15:26",73.189.186.35,"Mozilla/5.0 (Windows NT 10.0; Win64; x64) AppleWebKit/537.36 (KHTML, like Gecko) Chrome/94.0.4606.54 Safari/537.36 Edg/93.0.961.38",WebKit,Edge,93.0.961.38,Windows,10.0,ac0f2dffeffaa78d35a552e03d03f0a8
22,3,"""",test_procedure,confidence_rating,html-slider-response,123,195830,0.0-11.0-0.1-2.24,3PKVGQTFJQLSZOM7OKJDU84QFXXYRA,A1YSYI926BBOHW,3PIWWX1FJS7OTV5OKHE36EZZVXXJJZ,FWIP4,FWIP4,3PIWWX1FJS7OTV5OKHE36EZZVXXJJZ,3PIWWX1FJS7OTV5OKHE36EZZVXXJJZ,338054,338054,3,0.06,"""",852.5,57,"<div id=""message-div""><p>How confident are you that your clockwise/counter-clockwise response just now was accurate? Please rate your confidence on the slider bar below.</p></div>","""","""","""",50,"""","""","""",57,"2021-12-31 04:15:26",73.189.186.35,"Mozilla/5.0 (Windows NT 10.0; Win64; x64) AppleWebKit/537.36 (KHTML, like Gecko) Chrome/94.0.4606.54 Safari/537.36 Edg/93.0.961.38",WebKit,Edge,93.0.961.38,Windows,10.0,ac0f2dffeffaa78d35a552e03d03f0a8
22,3,"""",test_procedure,fixation,html-keyboard-response,124,196332,0.0-11.0-0.1-0.25,3PKVGQTFJQLSZOM7OKJDU84QFXXYRA,A1YSYI926BBOHW,3PIWWX1FJS7OTV5OKHE36EZZVXXJJZ,FWIP4,FWIP4,3PIWWX1FJS7OTV5OKHE36EZZVXXJJZ,3PIWWX1FJS7OTV5OKHE36EZZVXXJJZ,338054,338054,3,0.06,"""",null,null,"<div class = fixationbox><div class = fixation>+</div></div>","""","""","""","""","""","""","""","""","2021-12-31 04:15:26",73.189.186.35,"Mozilla/5.0 (Windows NT 10.0; Win64; x64) AppleWebKit/537.36 (KHTML, like Gecko) Chrome/94.0.4606.54 Safari/537.36 Edg/93.0.961.38",WebKit,Edge,93.0.961.38,Windows,10.0,ac0f2dffeffaa78d35a552e03d03f0a8
22,3,"""",test_procedure,stim_test,canvas-button-response,125,197188,0.0-11.0-0.1-1.25,3PKVGQTFJQLSZOM7OKJDU84QFXXYRA,A1YSYI926BBOHW,3PIWWX1FJS7OTV5OKHE36EZZVXXJJZ,FWIP4,FWIP4,3PIWWX1FJS7OTV5OKHE36EZZVXXJJZ,3PIWWX1FJS7OTV5OKHE36EZZVXXJJZ,338054,338054,3,0.06,"""",818,0,stim4,0,Counter-clockwise,true,"""",0.3,120,"""","""","2021-12-31 04:15:26",73.189.186.35,"Mozilla/5.0 (Windows NT 10.0; Win64; x64) AppleWebKit/537.36 (KHTML, like Gecko) Chrome/94.0.4606.54 Safari/537.36 Edg/93.0.961.38",WebKit,Edge,93.0.961.38,Windows,10.0,ac0f2dffeffaa78d35a552e03d03f0a8
22,3,"""",test_procedure,confidence_rating,html-slider-response,126,198670,0.0-11.0-0.1-2.25,3PKVGQTFJQLSZOM7OKJDU84QFXXYRA,A1YSYI926BBOHW,3PIWWX1FJS7OTV5OKHE36EZZVXXJJZ,FWIP4,FWIP4,3PIWWX1FJS7OTV5OKHE36EZZVXXJJZ,3PIWWX1FJS7OTV5OKHE36EZZVXXJJZ,338054,338054,3,0.06,"""",1481.5,16,"<div id=""message-div""><p>How confident are you that your clockwise/counter-clockwise response just now was accurate? Please rate your confidence on the slider bar below.</p></div>","""","""","""",50,"""","""","""",16,"2021-12-31 04:15:26",73.189.186.35,"Mozilla/5.0 (Windows NT 10.0; Win64; x64) AppleWebKit/537.36 (KHTML, like Gecko) Chrome/94.0.4606.54 Safari/537.36 Edg/93.0.961.38",WebKit,Edge,93.0.961.38,Windows,10.0,ac0f2dffeffaa78d35a552e03d03f0a8
22,3,"""",test_procedure,fixation,html-keyboard-response,127,199174,0.0-11.0-0.1-0.26,3PKVGQTFJQLSZOM7OKJDU84QFXXYRA,A1YSYI926BBOHW,3PIWWX1FJS7OTV5OKHE36EZZVXXJJZ,FWIP4,FWIP4,3PIWWX1FJS7OTV5OKHE36EZZVXXJJZ,3PIWWX1FJS7OTV5OKHE36EZZVXXJJZ,338054,338054,3,0.06,"""",null,null,"<div class = fixationbox><div class = fixation>+</div></div>","""","""","""","""","""","""","""","""","2021-12-31 04:15:26",73.189.186.35,"Mozilla/5.0 (Windows NT 10.0; Win64; x64) AppleWebKit/537.36 (KHTML, like Gecko) Chrome/94.0.4606.54 Safari/537.36 Edg/93.0.961.38",WebKit,Edge,93.0.961.38,Windows,10.0,ac0f2dffeffaa78d35a552e03d03f0a8
22,3,"""",test_procedure,stim_test,canvas-button-response,128,200121,0.0-11.0-0.1-1.26,3PKVGQTFJQLSZOM7OKJDU84QFXXYRA,A1YSYI926BBOHW,3PIWWX1FJS7OTV5OKHE36EZZVXXJJZ,FWIP4,FWIP4,3PIWWX1FJS7OTV5OKHE36EZZVXXJJZ,3PIWWX1FJS7OTV5OKHE36EZZVXXJJZ,338054,338054,3,0.06,"""",859.8999999761581,1,stim3,1,Clockwise,true,"""",0.3,60,"""","""","2021-12-31 04:15:26",73.189.186.35,"Mozilla/5.0 (Windows NT 10.0; Win64; x64) AppleWebKit/537.36 (KHTML, like Gecko) Chrome/94.0.4606.54 Safari/537.36 Edg/93.0.961.38",WebKit,Edge,93.0.961.38,Windows,10.0,ac0f2dffeffaa78d35a552e03d03f0a8
22,3,"""",test_procedure,confidence_rating,html-slider-response,129,201554,0.0-11.0-0.1-2.26,3PKVGQTFJQLSZOM7OKJDU84QFXXYRA,A1YSYI926BBOHW,3PIWWX1FJS7OTV5OKHE36EZZVXXJJZ,FWIP4,FWIP4,3PIWWX1FJS7OTV5OKHE36EZZVXXJJZ,3PIWWX1FJS7OTV5OKHE36EZZVXXJJZ,338054,338054,3,0.06,"""",1431.800000011921,53,"<div id=""message-div""><p>How confident are you that your clockwise/counter-clockwise response just now was accurate? Please rate your confidence on the slider bar below.</p></div>","""","""","""",50,"""","""","""",53,"2021-12-31 04:15:26",73.189.186.35,"Mozilla/5.0 (Windows NT 10.0; Win64; x64) AppleWebKit/537.36 (KHTML, like Gecko) Chrome/94.0.4606.54 Safari/537.36 Edg/93.0.961.38",WebKit,Edge,93.0.961.38,Windows,10.0,ac0f2dffeffaa78d35a552e03d03f0a8
22,3,"""",test_procedure,fixation,html-keyboard-response,130,202055,0.0-11.0-0.1-0.27,3PKVGQTFJQLSZOM7OKJDU84QFXXYRA,A1YSYI926BBOHW,3PIWWX1FJS7OTV5OKHE36EZZVXXJJZ,FWIP4,FWIP4,3PIWWX1FJS7OTV5OKHE36EZZVXXJJZ,3PIWWX1FJS7OTV5OKHE36EZZVXXJJZ,338054,338054,3,0.06,"""",null,null,"<div class = fixationbox><div class = fixation>+</div></div>","""","""","""","""","""","""","""","""","2021-12-31 04:15:26",73.189.186.35,"Mozilla/5.0 (Windows NT 10.0; Win64; x64) AppleWebKit/537.36 (KHTML, like Gecko) Chrome/94.0.4606.54 Safari/537.36 Edg/93.0.961.38",WebKit,Edge,93.0.961.38,Windows,10.0,ac0f2dffeffaa78d35a552e03d03f0a8
22,3,"""",test_procedure,stim_test,canvas-button-response,131,203135,0.0-11.0-0.1-1.27,3PKVGQTFJQLSZOM7OKJDU84QFXXYRA,A1YSYI926BBOHW,3PIWWX1FJS7OTV5OKHE36EZZVXXJJZ,FWIP4,FWIP4,3PIWWX1FJS7OTV5OKHE36EZZVXXJJZ,3PIWWX1FJS7OTV5OKHE36EZZVXXJJZ,338054,338054,3,0.06,"""",1021.7999999523163,0,stim2,0,Counter-clockwise,true,"""",0.01,120,"""","""","2021-12-31 04:15:26",73.189.186.35,"Mozilla/5.0 (Windows NT 10.0; Win64; x64) AppleWebKit/537.36 (KHTML, like Gecko) Chrome/94.0.4606.54 Safari/537.36 Edg/93.0.961.38",WebKit,Edge,93.0.961.38,Windows,10.0,ac0f2dffeffaa78d35a552e03d03f0a8
22,3,"""",test_procedure,confidence_rating,html-slider-response,132,204450,0.0-11.0-0.1-2.27,3PKVGQTFJQLSZOM7OKJDU84QFXXYRA,A1YSYI926BBOHW,3PIWWX1FJS7OTV5OKHE36EZZVXXJJZ,FWIP4,FWIP4,3PIWWX1FJS7OTV5OKHE36EZZVXXJJZ,3PIWWX1FJS7OTV5OKHE36EZZVXXJJZ,338054,338054,3,0.06,"""",1313.8999999761581,10,"<div id=""message-div""><p>How confident are you that your clockwise/counter-clockwise response just now was accurate? Please rate your confidence on the slider bar below.</p></div>","""","""","""",50,"""","""","""",10,"2021-12-31 04:15:26",73.189.186.35,"Mozilla/5.0 (Windows NT 10.0; Win64; x64) AppleWebKit/537.36 (KHTML, like Gecko) Chrome/94.0.4606.54 Safari/537.36 Edg/93.0.961.38",WebKit,Edge,93.0.961.38,Windows,10.0,ac0f2dffeffaa78d35a552e03d03f0a8
22,3,"""",test_procedure,fixation,html-keyboard-response,133,204955,0.0-11.0-0.1-0.28,3PKVGQTFJQLSZOM7OKJDU84QFXXYRA,A1YSYI926BBOHW,3PIWWX1FJS7OTV5OKHE36EZZVXXJJZ,FWIP4,FWIP4,3PIWWX1FJS7OTV5OKHE36EZZVXXJJZ,3PIWWX1FJS7OTV5OKHE36EZZVXXJJZ,338054,338054,3,0.06,"""",null,null,"<div class = fixationbox><div class = fixation>+</div></div>","""","""","""","""","""","""","""","""","2021-12-31 04:15:26",73.189.186.35,"Mozilla/5.0 (Windows NT 10.0; Win64; x64) AppleWebKit/537.36 (KHTML, like Gecko) Chrome/94.0.4606.54 Safari/537.36 Edg/93.0.961.38",WebKit,Edge,93.0.961.38,Windows,10.0,ac0f2dffeffaa78d35a552e03d03f0a8
22,3,"""",test_procedure,stim_test,canvas-button-response,134,205835,0.0-11.0-0.1-1.28,3PKVGQTFJQLSZOM7OKJDU84QFXXYRA,A1YSYI926BBOHW,3PIWWX1FJS7OTV5OKHE36EZZVXXJJZ,FWIP4,FWIP4,3PIWWX1FJS7OTV5OKHE36EZZVXXJJZ,3PIWWX1FJS7OTV5OKHE36EZZVXXJJZ,338054,338054,3,0.06,"""",841.6999999880791,0,stim2,0,Counter-clockwise,true,"""",0.01,120,"""","""","2021-12-31 04:15:26",73.189.186.35,"Mozilla/5.0 (Windows NT 10.0; Win64; x64) AppleWebKit/537.36 (KHTML, like Gecko) Chrome/94.0.4606.54 Safari/537.36 Edg/93.0.961.38",WebKit,Edge,93.0.961.38,Windows,10.0,ac0f2dffeffaa78d35a552e03d03f0a8
22,3,"""",test_procedure,confidence_rating,html-slider-response,135,207338,0.0-11.0-0.1-2.28,3PKVGQTFJQLSZOM7OKJDU84QFXXYRA,A1YSYI926BBOHW,3PIWWX1FJS7OTV5OKHE36EZZVXXJJZ,FWIP4,FWIP4,3PIWWX1FJS7OTV5OKHE36EZZVXXJJZ,3PIWWX1FJS7OTV5OKHE36EZZVXXJJZ,338054,338054,3,0.06,"""",1501.5999999642372,49,"<div id=""message-div""><p>How confident are you that your clockwise/counter-clockwise response just now was accurate? Please rate your confidence on the slider bar below.</p></div>","""","""","""",50,"""","""","""",49,"2021-12-31 04:15:26",73.189.186.35,"Mozilla/5.0 (Windows NT 10.0; Win64; x64) AppleWebKit/537.36 (KHTML, like Gecko) Chrome/94.0.4606.54 Safari/537.36 Edg/93.0.961.38",WebKit,Edge,93.0.961.38,Windows,10.0,ac0f2dffeffaa78d35a552e03d03f0a8
22,3,"""",test_procedure,fixation,html-keyboard-response,136,207840,0.0-11.0-0.1-0.29,3PKVGQTFJQLSZOM7OKJDU84QFXXYRA,A1YSYI926BBOHW,3PIWWX1FJS7OTV5OKHE36EZZVXXJJZ,FWIP4,FWIP4,3PIWWX1FJS7OTV5OKHE36EZZVXXJJZ,3PIWWX1FJS7OTV5OKHE36EZZVXXJJZ,338054,338054,3,0.06,"""",null,null,"<div class = fixationbox><div class = fixation>+</div></div>","""","""","""","""","""","""","""","""","2021-12-31 04:15:26",73.189.186.35,"Mozilla/5.0 (Windows NT 10.0; Win64; x64) AppleWebKit/537.36 (KHTML, like Gecko) Chrome/94.0.4606.54 Safari/537.36 Edg/93.0.961.38",WebKit,Edge,93.0.961.38,Windows,10.0,ac0f2dffeffaa78d35a552e03d03f0a8
22,3,"""",test_procedure,stim_test,canvas-button-response,137,208686,0.0-11.0-0.1-1.29,3PKVGQTFJQLSZOM7OKJDU84QFXXYRA,A1YSYI926BBOHW,3PIWWX1FJS7OTV5OKHE36EZZVXXJJZ,FWIP4,FWIP4,3PIWWX1FJS7OTV5OKHE36EZZVXXJJZ,3PIWWX1FJS7OTV5OKHE36EZZVXXJJZ,338054,338054,3,0.06,"""",797.5,1,stim3,1,Clockwise,true,"""",0.3,60,"""","""","2021-12-31 04:15:26",73.189.186.35,"Mozilla/5.0 (Windows NT 10.0; Win64; x64) AppleWebKit/537.36 (KHTML, like Gecko) Chrome/94.0.4606.54 Safari/537.36 Edg/93.0.961.38",WebKit,Edge,93.0.961.38,Windows,10.0,ac0f2dffeffaa78d35a552e03d03f0a8
22,3,"""",test_procedure,confidence_rating,html-slider-response,138,209962,0.0-11.0-0.1-2.29,3PKVGQTFJQLSZOM7OKJDU84QFXXYRA,A1YSYI926BBOHW,3PIWWX1FJS7OTV5OKHE36EZZVXXJJZ,FWIP4,FWIP4,3PIWWX1FJS7OTV5OKHE36EZZVXXJJZ,3PIWWX1FJS7OTV5OKHE36EZZVXXJJZ,338054,338054,3,0.06,"""",1274.5999999642372,82,"<div id=""message-div""><p>How confident are you that your clockwise/counter-clockwise response just now was accurate? Please rate your confidence on the slider bar below.</p></div>","""","""","""",50,"""","""","""",82,"2021-12-31 04:15:26",73.189.186.35,"Mozilla/5.0 (Windows NT 10.0; Win64; x64) AppleWebKit/537.36 (KHTML, like Gecko) Chrome/94.0.4606.54 Safari/537.36 Edg/93.0.961.38",WebKit,Edge,93.0.961.38,Windows,10.0,ac0f2dffeffaa78d35a552e03d03f0a8
22,3,"""",test_procedure,fixation,html-keyboard-response,139,210464,0.0-11.0-0.1-0.30,3PKVGQTFJQLSZOM7OKJDU84QFXXYRA,A1YSYI926BBOHW,3PIWWX1FJS7OTV5OKHE36EZZVXXJJZ,FWIP4,FWIP4,3PIWWX1FJS7OTV5OKHE36EZZVXXJJZ,3PIWWX1FJS7OTV5OKHE36EZZVXXJJZ,338054,338054,3,0.06,"""",null,null,"<div class = fixationbox><div class = fixation>+</div></div>","""","""","""","""","""","""","""","""","2021-12-31 04:15:26",73.189.186.35,"Mozilla/5.0 (Windows NT 10.0; Win64; x64) AppleWebKit/537.36 (KHTML, like Gecko) Chrome/94.0.4606.54 Safari/537.36 Edg/93.0.961.38",WebKit,Edge,93.0.961.38,Windows,10.0,ac0f2dffeffaa78d35a552e03d03f0a8
22,3,"""",test_procedure,stim_test,canvas-button-response,140,211379,0.0-11.0-0.1-1.30,3PKVGQTFJQLSZOM7OKJDU84QFXXYRA,A1YSYI926BBOHW,3PIWWX1FJS7OTV5OKHE36EZZVXXJJZ,FWIP4,FWIP4,3PIWWX1FJS7OTV5OKHE36EZZVXXJJZ,3PIWWX1FJS7OTV5OKHE36EZZVXXJJZ,338054,338054,3,0.06,"""",858.3000000119209,1,stim1,1,Clockwise,true,"""",0.01,60,"""","""","2021-12-31 04:15:26",73.189.186.35,"Mozilla/5.0 (Windows NT 10.0; Win64; x64) AppleWebKit/537.36 (KHTML, like Gecko) Chrome/94.0.4606.54 Safari/537.36 Edg/93.0.961.38",WebKit,Edge,93.0.961.38,Windows,10.0,ac0f2dffeffaa78d35a552e03d03f0a8
22,3,"""",test_procedure,confidence_rating,html-slider-response,141,212392,0.0-11.0-0.1-2.30,3PKVGQTFJQLSZOM7OKJDU84QFXXYRA,A1YSYI926BBOHW,3PIWWX1FJS7OTV5OKHE36EZZVXXJJZ,FWIP4,FWIP4,3PIWWX1FJS7OTV5OKHE36EZZVXXJJZ,3PIWWX1FJS7OTV5OKHE36EZZVXXJJZ,338054,338054,3,0.06,"""",1012.3000000119209,74,"<div id=""message-div""><p>How confident are you that your clockwise/counter-clockwise response just now was accurate? Please rate your confidence on the slider bar below.</p></div>","""","""","""",50,"""","""","""",74,"2021-12-31 04:15:26",73.189.186.35,"Mozilla/5.0 (Windows NT 10.0; Win64; x64) AppleWebKit/537.36 (KHTML, like Gecko) Chrome/94.0.4606.54 Safari/537.36 Edg/93.0.961.38",WebKit,Edge,93.0.961.38,Windows,10.0,ac0f2dffeffaa78d35a552e03d03f0a8
22,3,"""",test_procedure,fixation,html-keyboard-response,142,212894,0.0-11.0-0.1-0.31,3PKVGQTFJQLSZOM7OKJDU84QFXXYRA,A1YSYI926BBOHW,3PIWWX1FJS7OTV5OKHE36EZZVXXJJZ,FWIP4,FWIP4,3PIWWX1FJS7OTV5OKHE36EZZVXXJJZ,3PIWWX1FJS7OTV5OKHE36EZZVXXJJZ,338054,338054,3,0.06,"""",null,null,"<div class = fixationbox><div class = fixation>+</div></div>","""","""","""","""","""","""","""","""","2021-12-31 04:15:26",73.189.186.35,"Mozilla/5.0 (Windows NT 10.0; Win64; x64) AppleWebKit/537.36 (KHTML, like Gecko) Chrome/94.0.4606.54 Safari/537.36 Edg/93.0.961.38",WebKit,Edge,93.0.961.38,Windows,10.0,ac0f2dffeffaa78d35a552e03d03f0a8
22,3,"""",test_procedure,stim_test,canvas-button-response,143,213764,0.0-11.0-0.1-1.31,3PKVGQTFJQLSZOM7OKJDU84QFXXYRA,A1YSYI926BBOHW,3PIWWX1FJS7OTV5OKHE36EZZVXXJJZ,FWIP4,FWIP4,3PIWWX1FJS7OTV5OKHE36EZZVXXJJZ,3PIWWX1FJS7OTV5OKHE36EZZVXXJJZ,338054,338054,3,0.06,"""",830.8000000119209,1,stim3,1,Clockwise,true,"""",0.3,60,"""","""","2021-12-31 04:15:26",73.189.186.35,"Mozilla/5.0 (Windows NT 10.0; Win64; x64) AppleWebKit/537.36 (KHTML, like Gecko) Chrome/94.0.4606.54 Safari/537.36 Edg/93.0.961.38",WebKit,Edge,93.0.961.38,Windows,10.0,ac0f2dffeffaa78d35a552e03d03f0a8
22,3,"""",test_procedure,confidence_rating,html-slider-response,144,214572,0.0-11.0-0.1-2.31,3PKVGQTFJQLSZOM7OKJDU84QFXXYRA,A1YSYI926BBOHW,3PIWWX1FJS7OTV5OKHE36EZZVXXJJZ,FWIP4,FWIP4,3PIWWX1FJS7OTV5OKHE36EZZVXXJJZ,3PIWWX1FJS7OTV5OKHE36EZZVXXJJZ,338054,338054,3,0.06,"""",806.6999999880791,88,"<div id=""message-div""><p>How confident are you that your clockwise/counter-clockwise response just now was accurate? Please rate your confidence on the slider bar below.</p></div>","""","""","""",50,"""","""","""",88,"2021-12-31 04:15:26",73.189.186.35,"Mozilla/5.0 (Windows NT 10.0; Win64; x64) AppleWebKit/537.36 (KHTML, like Gecko) Chrome/94.0.4606.54 Safari/537.36 Edg/93.0.961.38",WebKit,Edge,93.0.961.38,Windows,10.0,ac0f2dffeffaa78d35a552e03d03f0a8
22,3,"""",test_procedure,fixation,html-keyboard-response,145,215078,0.0-11.0-0.1-0.32,3PKVGQTFJQLSZOM7OKJDU84QFXXYRA,A1YSYI926BBOHW,3PIWWX1FJS7OTV5OKHE36EZZVXXJJZ,FWIP4,FWIP4,3PIWWX1FJS7OTV5OKHE36EZZVXXJJZ,3PIWWX1FJS7OTV5OKHE36EZZVXXJJZ,338054,338054,3,0.06,"""",null,null,"<div class = fixationbox><div class = fixation>+</div></div>","""","""","""","""","""","""","""","""","2021-12-31 04:15:26",73.189.186.35,"Mozilla/5.0 (Windows NT 10.0; Win64; x64) AppleWebKit/537.36 (KHTML, like Gecko) Chrome/94.0.4606.54 Safari/537.36 Edg/93.0.961.38",WebKit,Edge,93.0.961.38,Windows,10.0,ac0f2dffeffaa78d35a552e03d03f0a8
22,3,"""",test_procedure,stim_test,canvas-button-response,146,216096,0.0-11.0-0.1-1.32,3PKVGQTFJQLSZOM7OKJDU84QFXXYRA,A1YSYI926BBOHW,3PIWWX1FJS7OTV5OKHE36EZZVXXJJZ,FWIP4,FWIP4,3PIWWX1FJS7OTV5OKHE36EZZVXXJJZ,3PIWWX1FJS7OTV5OKHE36EZZVXXJJZ,338054,338054,3,0.06,"""",934,1,catchStim5,1,Clockwise,true,"""",0.3,60,0.6,"""","2021-12-31 04:15:26",73.189.186.35,"Mozilla/5.0 (Windows NT 10.0; Win64; x64) AppleWebKit/537.36 (KHTML, like Gecko) Chrome/94.0.4606.54 Safari/537.36 Edg/93.0.961.38",WebKit,Edge,93.0.961.38,Windows,10.0,ac0f2dffeffaa78d35a552e03d03f0a8
22,3,"""",test_procedure,confidence_rating,html-slider-response,147,217145,0.0-11.0-0.1-2.32,3PKVGQTFJQLSZOM7OKJDU84QFXXYRA,A1YSYI926BBOHW,3PIWWX1FJS7OTV5OKHE36EZZVXXJJZ,FWIP4,FWIP4,3PIWWX1FJS7OTV5OKHE36EZZVXXJJZ,3PIWWX1FJS7OTV5OKHE36EZZVXXJJZ,338054,338054,3,0.06,"""",1047.4000000357628,99,"<div id=""message-div""><p>How confident are you that your clockwise/counter-clockwise response just now was accurate? Please rate your confidence on the slider bar below.</p></div>","""","""","""",50,"""","""","""",99,"2021-12-31 04:15:26",73.189.186.35,"Mozilla/5.0 (Windows NT 10.0; Win64; x64) AppleWebKit/537.36 (KHTML, like Gecko) Chrome/94.0.4606.54 Safari/537.36 Edg/93.0.961.38",WebKit,Edge,93.0.961.38,Windows,10.0,ac0f2dffeffaa78d35a552e03d03f0a8
22,3,"""",test_procedure,fixation,html-keyboard-response,148,217657,0.0-11.0-0.1-0.33,3PKVGQTFJQLSZOM7OKJDU84QFXXYRA,A1YSYI926BBOHW,3PIWWX1FJS7OTV5OKHE36EZZVXXJJZ,FWIP4,FWIP4,3PIWWX1FJS7OTV5OKHE36EZZVXXJJZ,3PIWWX1FJS7OTV5OKHE36EZZVXXJJZ,338054,338054,3,0.06,"""",null,null,"<div class = fixationbox><div class = fixation>+</div></div>","""","""","""","""","""","""","""","""","2021-12-31 04:15:26",73.189.186.35,"Mozilla/5.0 (Windows NT 10.0; Win64; x64) AppleWebKit/537.36 (KHTML, like Gecko) Chrome/94.0.4606.54 Safari/537.36 Edg/93.0.961.38",WebKit,Edge,93.0.961.38,Windows,10.0,ac0f2dffeffaa78d35a552e03d03f0a8
22,3,"""",test_procedure,stim_test,canvas-button-response,149,218743,0.0-11.0-0.1-1.33,3PKVGQTFJQLSZOM7OKJDU84QFXXYRA,A1YSYI926BBOHW,3PIWWX1FJS7OTV5OKHE36EZZVXXJJZ,FWIP4,FWIP4,3PIWWX1FJS7OTV5OKHE36EZZVXXJJZ,3PIWWX1FJS7OTV5OKHE36EZZVXXJJZ,338054,338054,3,0.06,"""",1035.300000011921,1,stim1,1,Clockwise,true,"""",0.01,60,"""","""","2021-12-31 04:15:26",73.189.186.35,"Mozilla/5.0 (Windows NT 10.0; Win64; x64) AppleWebKit/537.36 (KHTML, like Gecko) Chrome/94.0.4606.54 Safari/537.36 Edg/93.0.961.38",WebKit,Edge,93.0.961.38,Windows,10.0,ac0f2dffeffaa78d35a552e03d03f0a8
22,3,"""",test_procedure,confidence_rating,html-slider-response,150,220298,0.0-11.0-0.1-2.33,3PKVGQTFJQLSZOM7OKJDU84QFXXYRA,A1YSYI926BBOHW,3PIWWX1FJS7OTV5OKHE36EZZVXXJJZ,FWIP4,FWIP4,3PIWWX1FJS7OTV5OKHE36EZZVXXJJZ,3PIWWX1FJS7OTV5OKHE36EZZVXXJJZ,338054,338054,3,0.06,"""",1553.800000011921,94,"<div id=""message-div""><p>How confident are you that your clockwise/counter-clockwise response just now was accurate? Please rate your confidence on the slider bar below.</p></div>","""","""","""",50,"""","""","""",94,"2021-12-31 04:15:26",73.189.186.35,"Mozilla/5.0 (Windows NT 10.0; Win64; x64) AppleWebKit/537.36 (KHTML, like Gecko) Chrome/94.0.4606.54 Safari/537.36 Edg/93.0.961.38",WebKit,Edge,93.0.961.38,Windows,10.0,ac0f2dffeffaa78d35a552e03d03f0a8
22,3,"""",test_procedure,fixation,html-keyboard-response,151,220799,0.0-11.0-0.1-0.34,3PKVGQTFJQLSZOM7OKJDU84QFXXYRA,A1YSYI926BBOHW,3PIWWX1FJS7OTV5OKHE36EZZVXXJJZ,FWIP4,FWIP4,3PIWWX1FJS7OTV5OKHE36EZZVXXJJZ,3PIWWX1FJS7OTV5OKHE36EZZVXXJJZ,338054,338054,3,0.06,"""",null,null,"<div class = fixationbox><div class = fixation>+</div></div>","""","""","""","""","""","""","""","""","2021-12-31 04:15:26",73.189.186.35,"Mozilla/5.0 (Windows NT 10.0; Win64; x64) AppleWebKit/537.36 (KHTML, like Gecko) Chrome/94.0.4606.54 Safari/537.36 Edg/93.0.961.38",WebKit,Edge,93.0.961.38,Windows,10.0,ac0f2dffeffaa78d35a552e03d03f0a8
22,3,"""",test_procedure,stim_test,canvas-button-response,152,221721,0.0-11.0-0.1-1.34,3PKVGQTFJQLSZOM7OKJDU84QFXXYRA,A1YSYI926BBOHW,3PIWWX1FJS7OTV5OKHE36EZZVXXJJZ,FWIP4,FWIP4,3PIWWX1FJS7OTV5OKHE36EZZVXXJJZ,3PIWWX1FJS7OTV5OKHE36EZZVXXJJZ,338054,338054,3,0.06,"""",875,1,catchStim3,1,Clockwise,true,"""",0.01,60,0.001,"""","2021-12-31 04:15:26",73.189.186.35,"Mozilla/5.0 (Windows NT 10.0; Win64; x64) AppleWebKit/537.36 (KHTML, like Gecko) Chrome/94.0.4606.54 Safari/537.36 Edg/93.0.961.38",WebKit,Edge,93.0.961.38,Windows,10.0,ac0f2dffeffaa78d35a552e03d03f0a8
