run_id,condition,success,exp_stage,trial_id,trial_type,trial_index,time_elapsed,internal_node_id,hitId,workerId,assignmentId,a,tp_a,b,tp_b,c,tp_c,conditionmyown,cen_signal_contrast_stim,view_history,rt,response,stimulus,correct_response,correct_response_in_clockwise_or_counterclockwise,correct,slider_start,ctx_signal_contrast,cen_angle_in_degree,cen_signal_contrast_catchStim,confidence,recorded_at,ip,user_agent,device,browser,browser_version,platform,platform_version,source_code_version
18,1,true,pre-exp,fullscreen_starts,fullscreen,0,15160,0.0-0.0,3SD15I2WEBVYX2RZ7BNPTJHHA9P63F,A3KF6O09H04SP7,3A4NIXBJ7F0KPTZ9QZ382L483GXLM7,JI4A4,JI4A4,3A4NIXBJ7F0KPTZ9QZ382L483GXLM7,3A4NIXBJ7F0KPTZ9QZ382L483GXLM7,338054,338054,1,0.03,"""","""","""","""","""","""","""","""","""","""","""","""","2021-12-31 03:39:36",67.0.250.37,"Mozilla/5.0 (Windows NT 10.0; Win64; x64) AppleWebKit/537.36 (KHTML, like Gecko) Chrome/96.0.4664.110 Safari/537.36",WebKit,Chrome,96.0.4664.110,Windows,10.0,ac0f2dffeffaa78d35a552e03d03f0a8
18,1,"""",pre-exp,instructionspage1,instructions,1,17158,0.0-1.0-0.0,3SD15I2WEBVYX2RZ7BNPTJHHA9P63F,A3KF6O09H04SP7,3A4NIXBJ7F0KPTZ9QZ382L483GXLM7,JI4A4,JI4A4,3A4NIXBJ7F0KPTZ9QZ382L483GXLM7,3A4NIXBJ7F0KPTZ9QZ382L483GXLM7,338054,338054,1,0.03,"[{""page_index"":0,""viewing_time"":1985.199999988079}]",1986.199999988079,"""","""","""","""","""","""","""","""","""","""","2021-12-31 03:39:36",67.0.250.37,"Mozilla/5.0 (Windows NT 10.0; Win64; x64) AppleWebKit/537.36 (KHTML, like Gecko) Chrome/96.0.4664.110 Safari/537.36",WebKit,Chrome,96.0.4664.110,Windows,10.0,ac0f2dffeffaa78d35a552e03d03f0a8
18,1,"""",pre-exp,instructions_block2,canvas-button-response,2,41867,0.0-2.0-0.0-0.0,3SD15I2WEBVYX2RZ7BNPTJHHA9P63F,A3KF6O09H04SP7,3A4NIXBJ7F0KPTZ9QZ382L483GXLM7,JI4A4,JI4A4,3A4NIXBJ7F0KPTZ9QZ382L483GXLM7,3A4NIXBJ7F0KPTZ9QZ382L483GXLM7,338054,338054,1,0.03,"""",24531.80000001192,1,instructionStim1,1,Clockwise,true,"""","""","""","""","""","2021-12-31 03:39:36",67.0.250.37,"Mozilla/5.0 (Windows NT 10.0; Win64; x64) AppleWebKit/537.36 (KHTML, like Gecko) Chrome/96.0.4664.110 Safari/537.36",WebKit,Chrome,96.0.4664.110,Windows,10.0,ac0f2dffeffaa78d35a552e03d03f0a8
18,1,"""",pre-exp,instructions_block3,canvas-button-response,3,45731,0.0-3.0-0.0-0.0,3SD15I2WEBVYX2RZ7BNPTJHHA9P63F,A3KF6O09H04SP7,3A4NIXBJ7F0KPTZ9QZ382L483GXLM7,JI4A4,JI4A4,3A4NIXBJ7F0KPTZ9QZ382L483GXLM7,3A4NIXBJ7F0KPTZ9QZ382L483GXLM7,338054,338054,1,0.03,"""",3741.699999988079,0,instructionStim2,0,Counter-clockwise,true,"""","""","""","""","""","2021-12-31 03:39:36",67.0.250.37,"Mozilla/5.0 (Windows NT 10.0; Win64; x64) AppleWebKit/537.36 (KHTML, like Gecko) Chrome/96.0.4664.110 Safari/537.36",WebKit,Chrome,96.0.4664.110,Windows,10.0,ac0f2dffeffaa78d35a552e03d03f0a8
18,1,"""",pre-exp,instructions_block4,html-slider-response,4,59753,0.0-4.0,3SD15I2WEBVYX2RZ7BNPTJHHA9P63F,A3KF6O09H04SP7,3A4NIXBJ7F0KPTZ9QZ382L483GXLM7,JI4A4,JI4A4,3A4NIXBJ7F0KPTZ9QZ382L483GXLM7,3A4NIXBJ7F0KPTZ9QZ382L483GXLM7,338054,338054,1,0.03,"""",14013.699999988079,45,"<div id=""message-div""><p>After you have made your clockwise/counter-clockwise choice, <br>you will be asked to rate how confident you are that you were correct in your clockwise/counter-clockwise choice using a slide bar.<br>Please try to use the entire range of the slider bar.<br>For example, feel free to move the slider to the leftmost location if you are extremely uncertain about your choice, and the rightmost location if you are extremely certain.</p></div>","""","""","""",50,"""","""","""","""","2021-12-31 03:39:36",67.0.250.37,"Mozilla/5.0 (Windows NT 10.0; Win64; x64) AppleWebKit/537.36 (KHTML, like Gecko) Chrome/96.0.4664.110 Safari/537.36",WebKit,Chrome,96.0.4664.110,Windows,10.0,ac0f2dffeffaa78d35a552e03d03f0a8
18,1,"""",pre-exp,instructionspage5,instructions,5,66536,0.0-5.0-0.0,3SD15I2WEBVYX2RZ7BNPTJHHA9P63F,A3KF6O09H04SP7,3A4NIXBJ7F0KPTZ9QZ382L483GXLM7,JI4A4,JI4A4,3A4NIXBJ7F0KPTZ9QZ382L483GXLM7,3A4NIXBJ7F0KPTZ9QZ382L483GXLM7,338054,338054,1,0.03,"[{""page_index"":0,""viewing_time"":6777.5}]",6777.800000011921,"""","""","""","""","""","""","""","""","""","""","2021-12-31 03:39:36",67.0.250.37,"Mozilla/5.0 (Windows NT 10.0; Win64; x64) AppleWebKit/537.36 (KHTML, like Gecko) Chrome/96.0.4664.110 Safari/537.36",WebKit,Chrome,96.0.4664.110,Windows,10.0,ac0f2dffeffaa78d35a552e03d03f0a8
18,1,"""",pre-exp,instructionspage6,instructions,6,68703,0.0-6.0-0.0,3SD15I2WEBVYX2RZ7BNPTJHHA9P63F,A3KF6O09H04SP7,3A4NIXBJ7F0KPTZ9QZ382L483GXLM7,JI4A4,JI4A4,3A4NIXBJ7F0KPTZ9QZ382L483GXLM7,3A4NIXBJ7F0KPTZ9QZ382L483GXLM7,338054,338054,1,0.03,"[{""page_index"":0,""viewing_time"":2165.5}]",2165.7999999523163,"""","""","""","""","""","""","""","""","""","""","2021-12-31 03:39:36",67.0.250.37,"Mozilla/5.0 (Windows NT 10.0; Win64; x64) AppleWebKit/537.36 (KHTML, like Gecko) Chrome/96.0.4664.110 Safari/537.36",WebKit,Chrome,96.0.4664.110,Windows,10.0,ac0f2dffeffaa78d35a552e03d03f0a8
18,1,"""",pre-exp,instructionspage7,instructions,7,75677,0.0-7.0-0.0,3SD15I2WEBVYX2RZ7BNPTJHHA9P63F,A3KF6O09H04SP7,3A4NIXBJ7F0KPTZ9QZ382L483GXLM7,JI4A4,JI4A4,3A4NIXBJ7F0KPTZ9QZ382L483GXLM7,3A4NIXBJ7F0KPTZ9QZ382L483GXLM7,338054,338054,1,0.03,"[{""page_index"":0,""viewing_time"":6971}]",6971.5,"""","""","""","""","""","""","""","""","""","""","2021-12-31 03:39:36",67.0.250.37,"Mozilla/5.0 (Windows NT 10.0; Win64; x64) AppleWebKit/537.36 (KHTML, like Gecko) Chrome/96.0.4664.110 Safari/537.36",WebKit,Chrome,96.0.4664.110,Windows,10.0,ac0f2dffeffaa78d35a552e03d03f0a8
18,1,"""",pre-exp,instructionspage8,instructions,8,77924,0.0-8.0-0.0,3SD15I2WEBVYX2RZ7BNPTJHHA9P63F,A3KF6O09H04SP7,3A4NIXBJ7F0KPTZ9QZ382L483GXLM7,JI4A4,JI4A4,3A4NIXBJ7F0KPTZ9QZ382L483GXLM7,3A4NIXBJ7F0KPTZ9QZ382L483GXLM7,338054,338054,1,0.03,"[{""page_index"":0,""viewing_time"":2245.399999976158}]",2245.7999999523163,"""","""","""","""","""","""","""","""","""","""","2021-12-31 03:39:36",67.0.250.37,"Mozilla/5.0 (Windows NT 10.0; Win64; x64) AppleWebKit/537.36 (KHTML, like Gecko) Chrome/96.0.4664.110 Safari/537.36",WebKit,Chrome,96.0.4664.110,Windows,10.0,ac0f2dffeffaa78d35a552e03d03f0a8
18,1,"""",practice_procedure,fixation,html-keyboard-response,9,78428,0.0-9.0-0.0-0.0,3SD15I2WEBVYX2RZ7BNPTJHHA9P63F,A3KF6O09H04SP7,3A4NIXBJ7F0KPTZ9QZ382L483GXLM7,JI4A4,JI4A4,3A4NIXBJ7F0KPTZ9QZ382L483GXLM7,3A4NIXBJ7F0KPTZ9QZ382L483GXLM7,338054,338054,1,0.03,"""",null,null,"<div class = fixationbox><div class = fixation>+</div></div>","""","""","""","""","""","""","""","""","2021-12-31 03:39:36",67.0.250.37,"Mozilla/5.0 (Windows NT 10.0; Win64; x64) AppleWebKit/537.36 (KHTML, like Gecko) Chrome/96.0.4664.110 Safari/537.36",WebKit,Chrome,96.0.4664.110,Windows,10.0,ac0f2dffeffaa78d35a552e03d03f0a8
18,1,"""",practice_procedure,stim_practice,canvas-button-response,10,80162,0.0-9.0-0.0-1.0,3SD15I2WEBVYX2RZ7BNPTJHHA9P63F,A3KF6O09H04SP7,3A4NIXBJ7F0KPTZ9QZ382L483GXLM7,JI4A4,JI4A4,3A4NIXBJ7F0KPTZ9QZ382L483GXLM7,3A4NIXBJ7F0KPTZ9QZ382L483GXLM7,338054,338054,1,0.03,"""",1627.5,1,practiceStim3,1,Clockwise,true,"""",0.3,60,0.99,"""","2021-12-31 03:39:36",67.0.250.37,"Mozilla/5.0 (Windows NT 10.0; Win64; x64) AppleWebKit/537.36 (KHTML, like Gecko) Chrome/96.0.4664.110 Safari/537.36",WebKit,Chrome,96.0.4664.110,Windows,10.0,ac0f2dffeffaa78d35a552e03d03f0a8
18,1,"""",practice_procedure,confidence_rating,html-slider-response,11,82433,0.0-9.0-0.0-2.0,3SD15I2WEBVYX2RZ7BNPTJHHA9P63F,A3KF6O09H04SP7,3A4NIXBJ7F0KPTZ9QZ382L483GXLM7,JI4A4,JI4A4,3A4NIXBJ7F0KPTZ9QZ382L483GXLM7,3A4NIXBJ7F0KPTZ9QZ382L483GXLM7,338054,338054,1,0.03,"""",2269.099999964237,99,"<div id=""message-div""><p>How confident are you that your clockwise/counter-clockwise response just now was accurate? Please rate your confidence on the slider bar below.</p></div>","""","""","""",50,"""","""","""",99,"2021-12-31 03:39:36",67.0.250.37,"Mozilla/5.0 (Windows NT 10.0; Win64; x64) AppleWebKit/537.36 (KHTML, like Gecko) Chrome/96.0.4664.110 Safari/537.36",WebKit,Chrome,96.0.4664.110,Windows,10.0,ac0f2dffeffaa78d35a552e03d03f0a8
18,1,"""",practice_procedure,fixation,html-keyboard-response,12,82938,0.0-9.0-0.0-0.1,3SD15I2WEBVYX2RZ7BNPTJHHA9P63F,A3KF6O09H04SP7,3A4NIXBJ7F0KPTZ9QZ382L483GXLM7,JI4A4,JI4A4,3A4NIXBJ7F0KPTZ9QZ382L483GXLM7,3A4NIXBJ7F0KPTZ9QZ382L483GXLM7,338054,338054,1,0.03,"""",null,null,"<div class = fixationbox><div class = fixation>+</div></div>","""","""","""","""","""","""","""","""","2021-12-31 03:39:36",67.0.250.37,"Mozilla/5.0 (Windows NT 10.0; Win64; x64) AppleWebKit/537.36 (KHTML, like Gecko) Chrome/96.0.4664.110 Safari/537.36",WebKit,Chrome,96.0.4664.110,Windows,10.0,ac0f2dffeffaa78d35a552e03d03f0a8
18,1,"""",practice_procedure,stim_practice,canvas-button-response,13,84680,0.0-9.0-0.0-1.1,3SD15I2WEBVYX2RZ7BNPTJHHA9P63F,A3KF6O09H04SP7,3A4NIXBJ7F0KPTZ9QZ382L483GXLM7,JI4A4,JI4A4,3A4NIXBJ7F0KPTZ9QZ382L483GXLM7,3A4NIXBJ7F0KPTZ9QZ382L483GXLM7,338054,338054,1,0.03,"""",1662,1,practiceStim1,1,Clockwise,true,"""",0.01,60,0.99,"""","2021-12-31 03:39:36",67.0.250.37,"Mozilla/5.0 (Windows NT 10.0; Win64; x64) AppleWebKit/537.36 (KHTML, like Gecko) Chrome/96.0.4664.110 Safari/537.36",WebKit,Chrome,96.0.4664.110,Windows,10.0,ac0f2dffeffaa78d35a552e03d03f0a8
18,1,"""",practice_procedure,confidence_rating,html-slider-response,14,87329,0.0-9.0-0.0-2.1,3SD15I2WEBVYX2RZ7BNPTJHHA9P63F,A3KF6O09H04SP7,3A4NIXBJ7F0KPTZ9QZ382L483GXLM7,JI4A4,JI4A4,3A4NIXBJ7F0KPTZ9QZ382L483GXLM7,3A4NIXBJ7F0KPTZ9QZ382L483GXLM7,338054,338054,1,0.03,"""",2645.100000023842,97,"<div id=""message-div""><p>How confident are you that your clockwise/counter-clockwise response just now was accurate? Please rate your confidence on the slider bar below.</p></div>","""","""","""",50,"""","""","""",97,"2021-12-31 03:39:36",67.0.250.37,"Mozilla/5.0 (Windows NT 10.0; Win64; x64) AppleWebKit/537.36 (KHTML, like Gecko) Chrome/96.0.4664.110 Safari/537.36",WebKit,Chrome,96.0.4664.110,Windows,10.0,ac0f2dffeffaa78d35a552e03d03f0a8
18,1,"""",practice_procedure,fixation,html-keyboard-response,15,87831,0.0-9.0-0.0-0.2,3SD15I2WEBVYX2RZ7BNPTJHHA9P63F,A3KF6O09H04SP7,3A4NIXBJ7F0KPTZ9QZ382L483GXLM7,JI4A4,JI4A4,3A4NIXBJ7F0KPTZ9QZ382L483GXLM7,3A4NIXBJ7F0KPTZ9QZ382L483GXLM7,338054,338054,1,0.03,"""",null,null,"<div class = fixationbox><div class = fixation>+</div></div>","""","""","""","""","""","""","""","""","2021-12-31 03:39:36",67.0.250.37,"Mozilla/5.0 (Windows NT 10.0; Win64; x64) AppleWebKit/537.36 (KHTML, like Gecko) Chrome/96.0.4664.110 Safari/537.36",WebKit,Chrome,96.0.4664.110,Windows,10.0,ac0f2dffeffaa78d35a552e03d03f0a8
18,1,"""",practice_procedure,stim_practice,canvas-button-response,16,89239,0.0-9.0-0.0-1.2,3SD15I2WEBVYX2RZ7BNPTJHHA9P63F,A3KF6O09H04SP7,3A4NIXBJ7F0KPTZ9QZ382L483GXLM7,JI4A4,JI4A4,3A4NIXBJ7F0KPTZ9QZ382L483GXLM7,3A4NIXBJ7F0KPTZ9QZ382L483GXLM7,338054,338054,1,0.03,"""",1340,0,practiceStim4,0,Counter-clockwise,true,"""",0.3,120,0.99,"""","2021-12-31 03:39:36",67.0.250.37,"Mozilla/5.0 (Windows NT 10.0; Win64; x64) AppleWebKit/537.36 (KHTML, like Gecko) Chrome/96.0.4664.110 Safari/537.36",WebKit,Chrome,96.0.4664.110,Windows,10.0,ac0f2dffeffaa78d35a552e03d03f0a8
18,1,"""",practice_procedure,confidence_rating,html-slider-response,17,91277,0.0-9.0-0.0-2.2,3SD15I2WEBVYX2RZ7BNPTJHHA9P63F,A3KF6O09H04SP7,3A4NIXBJ7F0KPTZ9QZ382L483GXLM7,JI4A4,JI4A4,3A4NIXBJ7F0KPTZ9QZ382L483GXLM7,3A4NIXBJ7F0KPTZ9QZ382L483GXLM7,338054,338054,1,0.03,"""",2037.199999988079,96,"<div id=""message-div""><p>How confident are you that your clockwise/counter-clockwise response just now was accurate? Please rate your confidence on the slider bar below.</p></div>","""","""","""",50,"""","""","""",96,"2021-12-31 03:39:36",67.0.250.37,"Mozilla/5.0 (Windows NT 10.0; Win64; x64) AppleWebKit/537.36 (KHTML, like Gecko) Chrome/96.0.4664.110 Safari/537.36",WebKit,Chrome,96.0.4664.110,Windows,10.0,ac0f2dffeffaa78d35a552e03d03f0a8
18,1,"""",practice_procedure,fixation,html-keyboard-response,18,91780,0.0-9.0-0.0-0.3,3SD15I2WEBVYX2RZ7BNPTJHHA9P63F,A3KF6O09H04SP7,3A4NIXBJ7F0KPTZ9QZ382L483GXLM7,JI4A4,JI4A4,3A4NIXBJ7F0KPTZ9QZ382L483GXLM7,3A4NIXBJ7F0KPTZ9QZ382L483GXLM7,338054,338054,1,0.03,"""",null,null,"<div class = fixationbox><div class = fixation>+</div></div>","""","""","""","""","""","""","""","""","2021-12-31 03:39:36",67.0.250.37,"Mozilla/5.0 (Windows NT 10.0; Win64; x64) AppleWebKit/537.36 (KHTML, like Gecko) Chrome/96.0.4664.110 Safari/537.36",WebKit,Chrome,96.0.4664.110,Windows,10.0,ac0f2dffeffaa78d35a552e03d03f0a8
18,1,"""",practice_procedure,stim_practice,canvas-button-response,19,93078,0.0-9.0-0.0-1.3,3SD15I2WEBVYX2RZ7BNPTJHHA9P63F,A3KF6O09H04SP7,3A4NIXBJ7F0KPTZ9QZ382L483GXLM7,JI4A4,JI4A4,3A4NIXBJ7F0KPTZ9QZ382L483GXLM7,3A4NIXBJ7F0KPTZ9QZ382L483GXLM7,338054,338054,1,0.03,"""",1230.2000000476837,1,practiceStim1,1,Clockwise,true,"""",0.01,60,0.99,"""","2021-12-31 03:39:36",67.0.250.37,"Mozilla/5.0 (Windows NT 10.0; Win64; x64) AppleWebKit/537.36 (KHTML, like Gecko) Chrome/96.0.4664.110 Safari/537.36",WebKit,Chrome,96.0.4664.110,Windows,10.0,ac0f2dffeffaa78d35a552e03d03f0a8
18,1,"""",practice_procedure,confidence_rating,html-slider-response,20,95069,0.0-9.0-0.0-2.3,3SD15I2WEBVYX2RZ7BNPTJHHA9P63F,A3KF6O09H04SP7,3A4NIXBJ7F0KPTZ9QZ382L483GXLM7,JI4A4,JI4A4,3A4NIXBJ7F0KPTZ9QZ382L483GXLM7,3A4NIXBJ7F0KPTZ9QZ382L483GXLM7,338054,338054,1,0.03,"""",1989.4000000357628,96,"<div id=""message-div""><p>How confident are you that your clockwise/counter-clockwise response just now was accurate? Please rate your confidence on the slider bar below.</p></div>","""","""","""",50,"""","""","""",96,"2021-12-31 03:39:36",67.0.250.37,"Mozilla/5.0 (Windows NT 10.0; Win64; x64) AppleWebKit/537.36 (KHTML, like Gecko) Chrome/96.0.4664.110 Safari/537.36",WebKit,Chrome,96.0.4664.110,Windows,10.0,ac0f2dffeffaa78d35a552e03d03f0a8
18,1,"""",practice_procedure,fixation,html-keyboard-response,21,95578,0.0-9.0-0.0-0.4,3SD15I2WEBVYX2RZ7BNPTJHHA9P63F,A3KF6O09H04SP7,3A4NIXBJ7F0KPTZ9QZ382L483GXLM7,JI4A4,JI4A4,3A4NIXBJ7F0KPTZ9QZ382L483GXLM7,3A4NIXBJ7F0KPTZ9QZ382L483GXLM7,338054,338054,1,0.03,"""",null,null,"<div class = fixationbox><div class = fixation>+</div></div>","""","""","""","""","""","""","""","""","2021-12-31 03:39:36",67.0.250.37,"Mozilla/5.0 (Windows NT 10.0; Win64; x64) AppleWebKit/537.36 (KHTML, like Gecko) Chrome/96.0.4664.110 Safari/537.36",WebKit,Chrome,96.0.4664.110,Windows,10.0,ac0f2dffeffaa78d35a552e03d03f0a8
18,1,"""",practice_procedure,stim_practice,canvas-button-response,22,97267,0.0-9.0-0.0-1.4,3SD15I2WEBVYX2RZ7BNPTJHHA9P63F,A3KF6O09H04SP7,3A4NIXBJ7F0KPTZ9QZ382L483GXLM7,JI4A4,JI4A4,3A4NIXBJ7F0KPTZ9QZ382L483GXLM7,3A4NIXBJ7F0KPTZ9QZ382L483GXLM7,338054,338054,1,0.03,"""",1603.300000011921,0,practiceStim4,0,Counter-clockwise,true,"""",0.3,120,0.99,"""","2021-12-31 03:39:36",67.0.250.37,"Mozilla/5.0 (Windows NT 10.0; Win64; x64) AppleWebKit/537.36 (KHTML, like Gecko) Chrome/96.0.4664.110 Safari/537.36",WebKit,Chrome,96.0.4664.110,Windows,10.0,ac0f2dffeffaa78d35a552e03d03f0a8
18,1,"""",practice_procedure,confidence_rating,html-slider-response,23,99626,0.0-9.0-0.0-2.4,3SD15I2WEBVYX2RZ7BNPTJHHA9P63F,A3KF6O09H04SP7,3A4NIXBJ7F0KPTZ9QZ382L483GXLM7,JI4A4,JI4A4,3A4NIXBJ7F0KPTZ9QZ382L483GXLM7,3A4NIXBJ7F0KPTZ9QZ382L483GXLM7,338054,338054,1,0.03,"""",2354.5,78,"<div id=""message-div""><p>How confident are you that your clockwise/counter-clockwise response just now was accurate? Please rate your confidence on the slider bar below.</p></div>","""","""","""",50,"""","""","""",78,"2021-12-31 03:39:36",67.0.250.37,"Mozilla/5.0 (Windows NT 10.0; Win64; x64) AppleWebKit/537.36 (KHTML, like Gecko) Chrome/96.0.4664.110 Safari/537.36",WebKit,Chrome,96.0.4664.110,Windows,10.0,ac0f2dffeffaa78d35a552e03d03f0a8
18,1,"""",practice_procedure,fixation,html-keyboard-response,24,100128,0.0-9.0-0.0-0.5,3SD15I2WEBVYX2RZ7BNPTJHHA9P63F,A3KF6O09H04SP7,3A4NIXBJ7F0KPTZ9QZ382L483GXLM7,JI4A4,JI4A4,3A4NIXBJ7F0KPTZ9QZ382L483GXLM7,3A4NIXBJ7F0KPTZ9QZ382L483GXLM7,338054,338054,1,0.03,"""",null,null,"<div class = fixationbox><div class = fixation>+</div></div>","""","""","""","""","""","""","""","""","2021-12-31 03:39:36",67.0.250.37,"Mozilla/5.0 (Windows NT 10.0; Win64; x64) AppleWebKit/537.36 (KHTML, like Gecko) Chrome/96.0.4664.110 Safari/537.36",WebKit,Chrome,96.0.4664.110,Windows,10.0,ac0f2dffeffaa78d35a552e03d03f0a8
18,1,"""",practice_procedure,stim_practice,canvas-button-response,25,101429,0.0-9.0-0.0-1.5,3SD15I2WEBVYX2RZ7BNPTJHHA9P63F,A3KF6O09H04SP7,3A4NIXBJ7F0KPTZ9QZ382L483GXLM7,JI4A4,JI4A4,3A4NIXBJ7F0KPTZ9QZ382L483GXLM7,3A4NIXBJ7F0KPTZ9QZ382L483GXLM7,338054,338054,1,0.03,"""",1195.5999999642372,0,practiceStim4,0,Counter-clockwise,true,"""",0.3,120,0.99,"""","2021-12-31 03:39:36",67.0.250.37,"Mozilla/5.0 (Windows NT 10.0; Win64; x64) AppleWebKit/537.36 (KHTML, like Gecko) Chrome/96.0.4664.110 Safari/537.36",WebKit,Chrome,96.0.4664.110,Windows,10.0,ac0f2dffeffaa78d35a552e03d03f0a8
18,1,"""",practice_procedure,confidence_rating,html-slider-response,26,103665,0.0-9.0-0.0-2.5,3SD15I2WEBVYX2RZ7BNPTJHHA9P63F,A3KF6O09H04SP7,3A4NIXBJ7F0KPTZ9QZ382L483GXLM7,JI4A4,JI4A4,3A4NIXBJ7F0KPTZ9QZ382L483GXLM7,3A4NIXBJ7F0KPTZ9QZ382L483GXLM7,338054,338054,1,0.03,"""",2233.900000035763,83,"<div id=""message-div""><p>How confident are you that your clockwise/counter-clockwise response just now was accurate? Please rate your confidence on the slider bar below.</p></div>","""","""","""",50,"""","""","""",83,"2021-12-31 03:39:36",67.0.250.37,"Mozilla/5.0 (Windows NT 10.0; Win64; x64) AppleWebKit/537.36 (KHTML, like Gecko) Chrome/96.0.4664.110 Safari/537.36",WebKit,Chrome,96.0.4664.110,Windows,10.0,ac0f2dffeffaa78d35a552e03d03f0a8
18,1,"""",practice_procedure,fixation,html-keyboard-response,27,104171,0.0-9.0-0.0-0.6,3SD15I2WEBVYX2RZ7BNPTJHHA9P63F,A3KF6O09H04SP7,3A4NIXBJ7F0KPTZ9QZ382L483GXLM7,JI4A4,JI4A4,3A4NIXBJ7F0KPTZ9QZ382L483GXLM7,3A4NIXBJ7F0KPTZ9QZ382L483GXLM7,338054,338054,1,0.03,"""",null,null,"<div class = fixationbox><div class = fixation>+</div></div>","""","""","""","""","""","""","""","""","2021-12-31 03:39:36",67.0.250.37,"Mozilla/5.0 (Windows NT 10.0; Win64; x64) AppleWebKit/537.36 (KHTML, like Gecko) Chrome/96.0.4664.110 Safari/537.36",WebKit,Chrome,96.0.4664.110,Windows,10.0,ac0f2dffeffaa78d35a552e03d03f0a8
18,1,"""",practice_procedure,stim_practice,canvas-button-response,28,105448,0.0-9.0-0.0-1.6,3SD15I2WEBVYX2RZ7BNPTJHHA9P63F,A3KF6O09H04SP7,3A4NIXBJ7F0KPTZ9QZ382L483GXLM7,JI4A4,JI4A4,3A4NIXBJ7F0KPTZ9QZ382L483GXLM7,3A4NIXBJ7F0KPTZ9QZ382L483GXLM7,338054,338054,1,0.03,"""",1196.2999999523163,0,practiceStim2,0,Counter-clockwise,true,"""",0.01,120,0.99,"""","2021-12-31 03:39:36",67.0.250.37,"Mozilla/5.0 (Windows NT 10.0; Win64; x64) AppleWebKit/537.36 (KHTML, like Gecko) Chrome/96.0.4664.110 Safari/537.36",WebKit,Chrome,96.0.4664.110,Windows,10.0,ac0f2dffeffaa78d35a552e03d03f0a8
18,1,"""",practice_procedure,confidence_rating,html-slider-response,29,107529,0.0-9.0-0.0-2.6,3SD15I2WEBVYX2RZ7BNPTJHHA9P63F,A3KF6O09H04SP7,3A4NIXBJ7F0KPTZ9QZ382L483GXLM7,JI4A4,JI4A4,3A4NIXBJ7F0KPTZ9QZ382L483GXLM7,3A4NIXBJ7F0KPTZ9QZ382L483GXLM7,338054,338054,1,0.03,"""",2078.899999976158,89,"<div id=""message-div""><p>How confident are you that your clockwise/counter-clockwise response just now was accurate? Please rate your confidence on the slider bar below.</p></div>","""","""","""",50,"""","""","""",89,"2021-12-31 03:39:36",67.0.250.37,"Mozilla/5.0 (Windows NT 10.0; Win64; x64) AppleWebKit/537.36 (KHTML, like Gecko) Chrome/96.0.4664.110 Safari/537.36",WebKit,Chrome,96.0.4664.110,Windows,10.0,ac0f2dffeffaa78d35a552e03d03f0a8
18,1,"""",practice_procedure,fixation,html-keyboard-response,30,108041,0.0-9.0-0.0-0.7,3SD15I2WEBVYX2RZ7BNPTJHHA9P63F,A3KF6O09H04SP7,3A4NIXBJ7F0KPTZ9QZ382L483GXLM7,JI4A4,JI4A4,3A4NIXBJ7F0KPTZ9QZ382L483GXLM7,3A4NIXBJ7F0KPTZ9QZ382L483GXLM7,338054,338054,1,0.03,"""",null,null,"<div class = fixationbox><div class = fixation>+</div></div>","""","""","""","""","""","""","""","""","2021-12-31 03:39:36",67.0.250.37,"Mozilla/5.0 (Windows NT 10.0; Win64; x64) AppleWebKit/537.36 (KHTML, like Gecko) Chrome/96.0.4664.110 Safari/537.36",WebKit,Chrome,96.0.4664.110,Windows,10.0,ac0f2dffeffaa78d35a552e03d03f0a8
18,1,"""",practice_procedure,stim_practice,canvas-button-response,31,109671,0.0-9.0-0.0-1.7,3SD15I2WEBVYX2RZ7BNPTJHHA9P63F,A3KF6O09H04SP7,3A4NIXBJ7F0KPTZ9QZ382L483GXLM7,JI4A4,JI4A4,3A4NIXBJ7F0KPTZ9QZ382L483GXLM7,3A4NIXBJ7F0KPTZ9QZ382L483GXLM7,338054,338054,1,0.03,"""",1544.6000000238419,1,practiceStim3,1,Clockwise,true,"""",0.3,60,0.99,"""","2021-12-31 03:39:36",67.0.250.37,"Mozilla/5.0 (Windows NT 10.0; Win64; x64) AppleWebKit/537.36 (KHTML, like Gecko) Chrome/96.0.4664.110 Safari/537.36",WebKit,Chrome,96.0.4664.110,Windows,10.0,ac0f2dffeffaa78d35a552e03d03f0a8
18,1,"""",practice_procedure,confidence_rating,html-slider-response,32,111527,0.0-9.0-0.0-2.7,3SD15I2WEBVYX2RZ7BNPTJHHA9P63F,A3KF6O09H04SP7,3A4NIXBJ7F0KPTZ9QZ382L483GXLM7,JI4A4,JI4A4,3A4NIXBJ7F0KPTZ9QZ382L483GXLM7,3A4NIXBJ7F0KPTZ9QZ382L483GXLM7,338054,338054,1,0.03,"""",1848.800000011921,93,"<div id=""message-div""><p>How confident are you that your clockwise/counter-clockwise response just now was accurate? Please rate your confidence on the slider bar below.</p></div>","""","""","""",50,"""","""","""",93,"2021-12-31 03:39:36",67.0.250.37,"Mozilla/5.0 (Windows NT 10.0; Win64; x64) AppleWebKit/537.36 (KHTML, like Gecko) Chrome/96.0.4664.110 Safari/537.36",WebKit,Chrome,96.0.4664.110,Windows,10.0,ac0f2dffeffaa78d35a552e03d03f0a8
18,1,"""",practice_procedure,fixation,html-keyboard-response,33,112031,0.0-9.0-0.0-0.8,3SD15I2WEBVYX2RZ7BNPTJHHA9P63F,A3KF6O09H04SP7,3A4NIXBJ7F0KPTZ9QZ382L483GXLM7,JI4A4,JI4A4,3A4NIXBJ7F0KPTZ9QZ382L483GXLM7,3A4NIXBJ7F0KPTZ9QZ382L483GXLM7,338054,338054,1,0.03,"""",null,null,"<div class = fixationbox><div class = fixation>+</div></div>","""","""","""","""","""","""","""","""","2021-12-31 03:39:36",67.0.250.37,"Mozilla/5.0 (Windows NT 10.0; Win64; x64) AppleWebKit/537.36 (KHTML, like Gecko) Chrome/96.0.4664.110 Safari/537.36",WebKit,Chrome,96.0.4664.110,Windows,10.0,ac0f2dffeffaa78d35a552e03d03f0a8
18,1,"""",practice_procedure,stim_practice,canvas-button-response,34,113505,0.0-9.0-0.0-1.8,3SD15I2WEBVYX2RZ7BNPTJHHA9P63F,A3KF6O09H04SP7,3A4NIXBJ7F0KPTZ9QZ382L483GXLM7,JI4A4,JI4A4,3A4NIXBJ7F0KPTZ9QZ382L483GXLM7,3A4NIXBJ7F0KPTZ9QZ382L483GXLM7,338054,338054,1,0.03,"""",1381.300000011921,1,practiceStim3,1,Clockwise,true,"""",0.3,60,0.99,"""","2021-12-31 03:39:36",67.0.250.37,"Mozilla/5.0 (Windows NT 10.0; Win64; x64) AppleWebKit/537.36 (KHTML, like Gecko) Chrome/96.0.4664.110 Safari/537.36",WebKit,Chrome,96.0.4664.110,Windows,10.0,ac0f2dffeffaa78d35a552e03d03f0a8
18,1,"""",practice_procedure,confidence_rating,html-slider-response,35,115196,0.0-9.0-0.0-2.8,3SD15I2WEBVYX2RZ7BNPTJHHA9P63F,A3KF6O09H04SP7,3A4NIXBJ7F0KPTZ9QZ382L483GXLM7,JI4A4,JI4A4,3A4NIXBJ7F0KPTZ9QZ382L483GXLM7,3A4NIXBJ7F0KPTZ9QZ382L483GXLM7,338054,338054,1,0.03,"""",1688.5,92,"<div id=""message-div""><p>How confident are you that your clockwise/counter-clockwise response just now was accurate? Please rate your confidence on the slider bar below.</p></div>","""","""","""",50,"""","""","""",92,"2021-12-31 03:39:36",67.0.250.37,"Mozilla/5.0 (Windows NT 10.0; Win64; x64) AppleWebKit/537.36 (KHTML, like Gecko) Chrome/96.0.4664.110 Safari/537.36",WebKit,Chrome,96.0.4664.110,Windows,10.0,ac0f2dffeffaa78d35a552e03d03f0a8
18,1,"""",practice_procedure,fixation,html-keyboard-response,36,115700,0.0-9.0-0.0-0.9,3SD15I2WEBVYX2RZ7BNPTJHHA9P63F,A3KF6O09H04SP7,3A4NIXBJ7F0KPTZ9QZ382L483GXLM7,JI4A4,JI4A4,3A4NIXBJ7F0KPTZ9QZ382L483GXLM7,3A4NIXBJ7F0KPTZ9QZ382L483GXLM7,338054,338054,1,0.03,"""",null,null,"<div class = fixationbox><div class = fixation>+</div></div>","""","""","""","""","""","""","""","""","2021-12-31 03:39:36",67.0.250.37,"Mozilla/5.0 (Windows NT 10.0; Win64; x64) AppleWebKit/537.36 (KHTML, like Gecko) Chrome/96.0.4664.110 Safari/537.36",WebKit,Chrome,96.0.4664.110,Windows,10.0,ac0f2dffeffaa78d35a552e03d03f0a8
18,1,"""",practice_procedure,stim_practice,canvas-button-response,37,117180,0.0-9.0-0.0-1.9,3SD15I2WEBVYX2RZ7BNPTJHHA9P63F,A3KF6O09H04SP7,3A4NIXBJ7F0KPTZ9QZ382L483GXLM7,JI4A4,JI4A4,3A4NIXBJ7F0KPTZ9QZ382L483GXLM7,3A4NIXBJ7F0KPTZ9QZ382L483GXLM7,338054,338054,1,0.03,"""",1379.300000011921,1,practiceStim3,1,Clockwise,true,"""",0.3,60,0.99,"""","2021-12-31 03:39:36",67.0.250.37,"Mozilla/5.0 (Windows NT 10.0; Win64; x64) AppleWebKit/537.36 (KHTML, like Gecko) Chrome/96.0.4664.110 Safari/537.36",WebKit,Chrome,96.0.4664.110,Windows,10.0,ac0f2dffeffaa78d35a552e03d03f0a8
18,1,"""",practice_procedure,confidence_rating,html-slider-response,38,119099,0.0-9.0-0.0-2.9,3SD15I2WEBVYX2RZ7BNPTJHHA9P63F,A3KF6O09H04SP7,3A4NIXBJ7F0KPTZ9QZ382L483GXLM7,JI4A4,JI4A4,3A4NIXBJ7F0KPTZ9QZ382L483GXLM7,3A4NIXBJ7F0KPTZ9QZ382L483GXLM7,338054,338054,1,0.03,"""",1917.800000011921,91,"<div id=""message-div""><p>How confident are you that your clockwise/counter-clockwise response just now was accurate? Please rate your confidence on the slider bar below.</p></div>","""","""","""",50,"""","""","""",91,"2021-12-31 03:39:36",67.0.250.37,"Mozilla/5.0 (Windows NT 10.0; Win64; x64) AppleWebKit/537.36 (KHTML, like Gecko) Chrome/96.0.4664.110 Safari/537.36",WebKit,Chrome,96.0.4664.110,Windows,10.0,ac0f2dffeffaa78d35a552e03d03f0a8
18,1,"""",pre-test,test_instruction,instructions,39,135588,0.0-10.0,3SD15I2WEBVYX2RZ7BNPTJHHA9P63F,A3KF6O09H04SP7,3A4NIXBJ7F0KPTZ9QZ382L483GXLM7,JI4A4,JI4A4,3A4NIXBJ7F0KPTZ9QZ382L483GXLM7,3A4NIXBJ7F0KPTZ9QZ382L483GXLM7,338054,338054,1,0.03,"[{""page_index"":0,""viewing_time"":16486.80000001192}]",16487.200000047684,"""","""","""","""","""","""","""","""","""","""","2021-12-31 03:39:36",67.0.250.37,"Mozilla/5.0 (Windows NT 10.0; Win64; x64) AppleWebKit/537.36 (KHTML, like Gecko) Chrome/96.0.4664.110 Safari/537.36",WebKit,Chrome,96.0.4664.110,Windows,10.0,ac0f2dffeffaa78d35a552e03d03f0a8
18,1,"""",test_procedure,fixation,html-keyboard-response,40,136092,0.0-11.0-0.0-0.0,3SD15I2WEBVYX2RZ7BNPTJHHA9P63F,A3KF6O09H04SP7,3A4NIXBJ7F0KPTZ9QZ382L483GXLM7,JI4A4,JI4A4,3A4NIXBJ7F0KPTZ9QZ382L483GXLM7,3A4NIXBJ7F0KPTZ9QZ382L483GXLM7,338054,338054,1,0.03,"""",null,null,"<div class = fixationbox><div class = fixation>+</div></div>","""","""","""","""","""","""","""","""","2021-12-31 03:39:36",67.0.250.37,"Mozilla/5.0 (Windows NT 10.0; Win64; x64) AppleWebKit/537.36 (KHTML, like Gecko) Chrome/96.0.4664.110 Safari/537.36",WebKit,Chrome,96.0.4664.110,Windows,10.0,ac0f2dffeffaa78d35a552e03d03f0a8
18,1,"""",test_procedure,stim_test,canvas-button-response,41,138499,0.0-11.0-0.0-1.0,3SD15I2WEBVYX2RZ7BNPTJHHA9P63F,A3KF6O09H04SP7,3A4NIXBJ7F0KPTZ9QZ382L483GXLM7,JI4A4,JI4A4,3A4NIXBJ7F0KPTZ9QZ382L483GXLM7,3A4NIXBJ7F0KPTZ9QZ382L483GXLM7,338054,338054,1,0.03,"""",2238.5,1,stim4,0,Counter-clockwise,false,"""",0.3,120,"""","""","2021-12-31 03:39:36",67.0.250.37,"Mozilla/5.0 (Windows NT 10.0; Win64; x64) AppleWebKit/537.36 (KHTML, like Gecko) Chrome/96.0.4664.110 Safari/537.36",WebKit,Chrome,96.0.4664.110,Windows,10.0,ac0f2dffeffaa78d35a552e03d03f0a8
18,1,"""",test_procedure,confidence_rating,html-slider-response,42,141371,0.0-11.0-0.0-2.0,3SD15I2WEBVYX2RZ7BNPTJHHA9P63F,A3KF6O09H04SP7,3A4NIXBJ7F0KPTZ9QZ382L483GXLM7,JI4A4,JI4A4,3A4NIXBJ7F0KPTZ9QZ382L483GXLM7,3A4NIXBJ7F0KPTZ9QZ382L483GXLM7,338054,338054,1,0.03,"""",2870.199999988079,0,"<div id=""message-div""><p>How confident are you that your clockwise/counter-clockwise response just now was accurate? Please rate your confidence on the slider bar below.</p></div>","""","""","""",50,"""","""","""",0,"2021-12-31 03:39:36",67.0.250.37,"Mozilla/5.0 (Windows NT 10.0; Win64; x64) AppleWebKit/537.36 (KHTML, like Gecko) Chrome/96.0.4664.110 Safari/537.36",WebKit,Chrome,96.0.4664.110,Windows,10.0,ac0f2dffeffaa78d35a552e03d03f0a8
18,1,"""",test_procedure,fixation,html-keyboard-response,43,141874,0.0-11.0-0.0-0.1,3SD15I2WEBVYX2RZ7BNPTJHHA9P63F,A3KF6O09H04SP7,3A4NIXBJ7F0KPTZ9QZ382L483GXLM7,JI4A4,JI4A4,3A4NIXBJ7F0KPTZ9QZ382L483GXLM7,3A4NIXBJ7F0KPTZ9QZ382L483GXLM7,338054,338054,1,0.03,"""",null,null,"<div class = fixationbox><div class = fixation>+</div></div>","""","""","""","""","""","""","""","""","2021-12-31 03:39:36",67.0.250.37,"Mozilla/5.0 (Windows NT 10.0; Win64; x64) AppleWebKit/537.36 (KHTML, like Gecko) Chrome/96.0.4664.110 Safari/537.36",WebKit,Chrome,96.0.4664.110,Windows,10.0,ac0f2dffeffaa78d35a552e03d03f0a8
18,1,"""",test_procedure,stim_test,canvas-button-response,44,144968,0.0-11.0-0.0-1.1,3SD15I2WEBVYX2RZ7BNPTJHHA9P63F,A3KF6O09H04SP7,3A4NIXBJ7F0KPTZ9QZ382L483GXLM7,JI4A4,JI4A4,3A4NIXBJ7F0KPTZ9QZ382L483GXLM7,3A4NIXBJ7F0KPTZ9QZ382L483GXLM7,338054,338054,1,0.03,"""",3011.7999999523163,0,stim1,1,Clockwise,false,"""",0.01,60,"""","""","2021-12-31 03:39:36",67.0.250.37,"Mozilla/5.0 (Windows NT 10.0; Win64; x64) AppleWebKit/537.36 (KHTML, like Gecko) Chrome/96.0.4664.110 Safari/537.36",WebKit,Chrome,96.0.4664.110,Windows,10.0,ac0f2dffeffaa78d35a552e03d03f0a8
18,1,"""",test_procedure,confidence_rating,html-slider-response,45,146991,0.0-11.0-0.0-2.1,3SD15I2WEBVYX2RZ7BNPTJHHA9P63F,A3KF6O09H04SP7,3A4NIXBJ7F0KPTZ9QZ382L483GXLM7,JI4A4,JI4A4,3A4NIXBJ7F0KPTZ9QZ382L483GXLM7,3A4NIXBJ7F0KPTZ9QZ382L483GXLM7,338054,338054,1,0.03,"""",2019.300000011921,1,"<div id=""message-div""><p>How confident are you that your clockwise/counter-clockwise response just now was accurate? Please rate your confidence on the slider bar below.</p></div>","""","""","""",50,"""","""","""",1,"2021-12-31 03:39:36",67.0.250.37,"Mozilla/5.0 (Windows NT 10.0; Win64; x64) AppleWebKit/537.36 (KHTML, like Gecko) Chrome/96.0.4664.110 Safari/537.36",WebKit,Chrome,96.0.4664.110,Windows,10.0,ac0f2dffeffaa78d35a552e03d03f0a8
18,1,"""",test_procedure,fixation,html-keyboard-response,46,147494,0.0-11.0-0.0-0.2,3SD15I2WEBVYX2RZ7BNPTJHHA9P63F,A3KF6O09H04SP7,3A4NIXBJ7F0KPTZ9QZ382L483GXLM7,JI4A4,JI4A4,3A4NIXBJ7F0KPTZ9QZ382L483GXLM7,3A4NIXBJ7F0KPTZ9QZ382L483GXLM7,338054,338054,1,0.03,"""",null,null,"<div class = fixationbox><div class = fixation>+</div></div>","""","""","""","""","""","""","""","""","2021-12-31 03:39:36",67.0.250.37,"Mozilla/5.0 (Windows NT 10.0; Win64; x64) AppleWebKit/537.36 (KHTML, like Gecko) Chrome/96.0.4664.110 Safari/537.36",WebKit,Chrome,96.0.4664.110,Windows,10.0,ac0f2dffeffaa78d35a552e03d03f0a8
18,1,"""",test_procedure,stim_test,canvas-button-response,47,149318,0.0-11.0-0.0-1.2,3SD15I2WEBVYX2RZ7BNPTJHHA9P63F,A3KF6O09H04SP7,3A4NIXBJ7F0KPTZ9QZ382L483GXLM7,JI4A4,JI4A4,3A4NIXBJ7F0KPTZ9QZ382L483GXLM7,3A4NIXBJ7F0KPTZ9QZ382L483GXLM7,338054,338054,1,0.03,"""",1755.3999999761581,0,catchStim2,0,Counter-clockwise,true,"""",0.01,120,0.6,"""","2021-12-31 03:39:36",67.0.250.37,"Mozilla/5.0 (Windows NT 10.0; Win64; x64) AppleWebKit/537.36 (KHTML, like Gecko) Chrome/96.0.4664.110 Safari/537.36",WebKit,Chrome,96.0.4664.110,Windows,10.0,ac0f2dffeffaa78d35a552e03d03f0a8
18,1,"""",test_procedure,confidence_rating,html-slider-response,48,151398,0.0-11.0-0.0-2.2,3SD15I2WEBVYX2RZ7BNPTJHHA9P63F,A3KF6O09H04SP7,3A4NIXBJ7F0KPTZ9QZ382L483GXLM7,JI4A4,JI4A4,3A4NIXBJ7F0KPTZ9QZ382L483GXLM7,3A4NIXBJ7F0KPTZ9QZ382L483GXLM7,338054,338054,1,0.03,"""",2075.599999964237,93,"<div id=""message-div""><p>How confident are you that your clockwise/counter-clockwise response just now was accurate? Please rate your confidence on the slider bar below.</p></div>","""","""","""",50,"""","""","""",93,"2021-12-31 03:39:36",67.0.250.37,"Mozilla/5.0 (Windows NT 10.0; Win64; x64) AppleWebKit/537.36 (KHTML, like Gecko) Chrome/96.0.4664.110 Safari/537.36",WebKit,Chrome,96.0.4664.110,Windows,10.0,ac0f2dffeffaa78d35a552e03d03f0a8
18,1,"""",test_procedure,fixation,html-keyboard-response,49,151899,0.0-11.0-0.0-0.3,3SD15I2WEBVYX2RZ7BNPTJHHA9P63F,A3KF6O09H04SP7,3A4NIXBJ7F0KPTZ9QZ382L483GXLM7,JI4A4,JI4A4,3A4NIXBJ7F0KPTZ9QZ382L483GXLM7,3A4NIXBJ7F0KPTZ9QZ382L483GXLM7,338054,338054,1,0.03,"""",null,null,"<div class = fixationbox><div class = fixation>+</div></div>","""","""","""","""","""","""","""","""","2021-12-31 03:39:36",67.0.250.37,"Mozilla/5.0 (Windows NT 10.0; Win64; x64) AppleWebKit/537.36 (KHTML, like Gecko) Chrome/96.0.4664.110 Safari/537.36",WebKit,Chrome,96.0.4664.110,Windows,10.0,ac0f2dffeffaa78d35a552e03d03f0a8
18,1,"""",test_procedure,stim_test,canvas-button-response,50,154364,0.0-11.0-0.0-1.3,3SD15I2WEBVYX2RZ7BNPTJHHA9P63F,A3KF6O09H04SP7,3A4NIXBJ7F0KPTZ9QZ382L483GXLM7,JI4A4,JI4A4,3A4NIXBJ7F0KPTZ9QZ382L483GXLM7,3A4NIXBJ7F0KPTZ9QZ382L483GXLM7,338054,338054,1,0.03,"""",2373.600000023842,1,stim3,1,Clockwise,true,"""",0.3,60,"""","""","2021-12-31 03:39:36",67.0.250.37,"Mozilla/5.0 (Windows NT 10.0; Win64; x64) AppleWebKit/537.36 (KHTML, like Gecko) Chrome/96.0.4664.110 Safari/537.36",WebKit,Chrome,96.0.4664.110,Windows,10.0,ac0f2dffeffaa78d35a552e03d03f0a8
18,1,"""",test_procedure,confidence_rating,html-slider-response,51,156141,0.0-11.0-0.0-2.3,3SD15I2WEBVYX2RZ7BNPTJHHA9P63F,A3KF6O09H04SP7,3A4NIXBJ7F0KPTZ9QZ382L483GXLM7,JI4A4,JI4A4,3A4NIXBJ7F0KPTZ9QZ382L483GXLM7,3A4NIXBJ7F0KPTZ9QZ382L483GXLM7,338054,338054,1,0.03,"""",1775.6000000238419,9,"<div id=""message-div""><p>How confident are you that your clockwise/counter-clockwise response just now was accurate? Please rate your confidence on the slider bar below.</p></div>","""","""","""",50,"""","""","""",9,"2021-12-31 03:39:36",67.0.250.37,"Mozilla/5.0 (Windows NT 10.0; Win64; x64) AppleWebKit/537.36 (KHTML, like Gecko) Chrome/96.0.4664.110 Safari/537.36",WebKit,Chrome,96.0.4664.110,Windows,10.0,ac0f2dffeffaa78d35a552e03d03f0a8
18,1,"""",test_procedure,fixation,html-keyboard-response,52,156661,0.0-11.0-0.0-0.4,3SD15I2WEBVYX2RZ7BNPTJHHA9P63F,A3KF6O09H04SP7,3A4NIXBJ7F0KPTZ9QZ382L483GXLM7,JI4A4,JI4A4,3A4NIXBJ7F0KPTZ9QZ382L483GXLM7,3A4NIXBJ7F0KPTZ9QZ382L483GXLM7,338054,338054,1,0.03,"""",null,null,"<div class = fixationbox><div class = fixation>+</div></div>","""","""","""","""","""","""","""","""","2021-12-31 03:39:36",67.0.250.37,"Mozilla/5.0 (Windows NT 10.0; Win64; x64) AppleWebKit/537.36 (KHTML, like Gecko) Chrome/96.0.4664.110 Safari/537.36",WebKit,Chrome,96.0.4664.110,Windows,10.0,ac0f2dffeffaa78d35a552e03d03f0a8
18,1,"""",test_procedure,stim_test,canvas-button-response,53,158564,0.0-11.0-0.0-1.4,3SD15I2WEBVYX2RZ7BNPTJHHA9P63F,A3KF6O09H04SP7,3A4NIXBJ7F0KPTZ9QZ382L483GXLM7,JI4A4,JI4A4,3A4NIXBJ7F0KPTZ9QZ382L483GXLM7,3A4NIXBJ7F0KPTZ9QZ382L483GXLM7,338054,338054,1,0.03,"""",1833.6000000238419,0,stim2,0,Counter-clockwise,true,"""",0.01,120,"""","""","2021-12-31 03:39:36",67.0.250.37,"Mozilla/5.0 (Windows NT 10.0; Win64; x64) AppleWebKit/537.36 (KHTML, like Gecko) Chrome/96.0.4664.110 Safari/537.36",WebKit,Chrome,96.0.4664.110,Windows,10.0,ac0f2dffeffaa78d35a552e03d03f0a8
18,1,"""",test_procedure,confidence_rating,html-slider-response,54,160721,0.0-11.0-0.0-2.4,3SD15I2WEBVYX2RZ7BNPTJHHA9P63F,A3KF6O09H04SP7,3A4NIXBJ7F0KPTZ9QZ382L483GXLM7,JI4A4,JI4A4,3A4NIXBJ7F0KPTZ9QZ382L483GXLM7,3A4NIXBJ7F0KPTZ9QZ382L483GXLM7,338054,338054,1,0.03,"""",2155.5,2,"<div id=""message-div""><p>How confident are you that your clockwise/counter-clockwise response just now was accurate? Please rate your confidence on the slider bar below.</p></div>","""","""","""",50,"""","""","""",2,"2021-12-31 03:39:36",67.0.250.37,"Mozilla/5.0 (Windows NT 10.0; Win64; x64) AppleWebKit/537.36 (KHTML, like Gecko) Chrome/96.0.4664.110 Safari/537.36",WebKit,Chrome,96.0.4664.110,Windows,10.0,ac0f2dffeffaa78d35a552e03d03f0a8
18,1,"""",test_procedure,fixation,html-keyboard-response,55,161223,0.0-11.0-0.0-0.5,3SD15I2WEBVYX2RZ7BNPTJHHA9P63F,A3KF6O09H04SP7,3A4NIXBJ7F0KPTZ9QZ382L483GXLM7,JI4A4,JI4A4,3A4NIXBJ7F0KPTZ9QZ382L483GXLM7,3A4NIXBJ7F0KPTZ9QZ382L483GXLM7,338054,338054,1,0.03,"""",null,null,"<div class = fixationbox><div class = fixation>+</div></div>","""","""","""","""","""","""","""","""","2021-12-31 03:39:36",67.0.250.37,"Mozilla/5.0 (Windows NT 10.0; Win64; x64) AppleWebKit/537.36 (KHTML, like Gecko) Chrome/96.0.4664.110 Safari/537.36",WebKit,Chrome,96.0.4664.110,Windows,10.0,ac0f2dffeffaa78d35a552e03d03f0a8
18,1,"""",test_procedure,stim_test,canvas-button-response,56,163097,0.0-11.0-0.0-1.5,3SD15I2WEBVYX2RZ7BNPTJHHA9P63F,A3KF6O09H04SP7,3A4NIXBJ7F0KPTZ9QZ382L483GXLM7,JI4A4,JI4A4,3A4NIXBJ7F0KPTZ9QZ382L483GXLM7,3A4NIXBJ7F0KPTZ9QZ382L483GXLM7,338054,338054,1,0.03,"""",1780.300000011921,0,catchStim4,0,Counter-clockwise,true,"""",0.01,120,0.001,"""","2021-12-31 03:39:36",67.0.250.37,"Mozilla/5.0 (Windows NT 10.0; Win64; x64) AppleWebKit/537.36 (KHTML, like Gecko) Chrome/96.0.4664.110 Safari/537.36",WebKit,Chrome,96.0.4664.110,Windows,10.0,ac0f2dffeffaa78d35a552e03d03f0a8
18,1,"""",test_procedure,confidence_rating,html-slider-response,57,164976,0.0-11.0-0.0-2.5,3SD15I2WEBVYX2RZ7BNPTJHHA9P63F,A3KF6O09H04SP7,3A4NIXBJ7F0KPTZ9QZ382L483GXLM7,JI4A4,JI4A4,3A4NIXBJ7F0KPTZ9QZ382L483GXLM7,3A4NIXBJ7F0KPTZ9QZ382L483GXLM7,338054,338054,1,0.03,"""",1875.199999988079,16,"<div id=""message-div""><p>How confident are you that your clockwise/counter-clockwise response just now was accurate? Please rate your confidence on the slider bar below.</p></div>","""","""","""",50,"""","""","""",16,"2021-12-31 03:39:36",67.0.250.37,"Mozilla/5.0 (Windows NT 10.0; Win64; x64) AppleWebKit/537.36 (KHTML, like Gecko) Chrome/96.0.4664.110 Safari/537.36",WebKit,Chrome,96.0.4664.110,Windows,10.0,ac0f2dffeffaa78d35a552e03d03f0a8
18,1,"""",test_procedure,fixation,html-keyboard-response,58,165477,0.0-11.0-0.0-0.6,3SD15I2WEBVYX2RZ7BNPTJHHA9P63F,A3KF6O09H04SP7,3A4NIXBJ7F0KPTZ9QZ382L483GXLM7,JI4A4,JI4A4,3A4NIXBJ7F0KPTZ9QZ382L483GXLM7,3A4NIXBJ7F0KPTZ9QZ382L483GXLM7,338054,338054,1,0.03,"""",null,null,"<div class = fixationbox><div class = fixation>+</div></div>","""","""","""","""","""","""","""","""","2021-12-31 03:39:36",67.0.250.37,"Mozilla/5.0 (Windows NT 10.0; Win64; x64) AppleWebKit/537.36 (KHTML, like Gecko) Chrome/96.0.4664.110 Safari/537.36",WebKit,Chrome,96.0.4664.110,Windows,10.0,ac0f2dffeffaa78d35a552e03d03f0a8
18,1,"""",test_procedure,stim_test,canvas-button-response,59,166958,0.0-11.0-0.0-1.6,3SD15I2WEBVYX2RZ7BNPTJHHA9P63F,A3KF6O09H04SP7,3A4NIXBJ7F0KPTZ9QZ382L483GXLM7,JI4A4,JI4A4,3A4NIXBJ7F0KPTZ9QZ382L483GXLM7,3A4NIXBJ7F0KPTZ9QZ382L483GXLM7,338054,338054,1,0.03,"""",1385.4000000357628,1,catchStim3,1,Clockwise,true,"""",0.01,60,0.001,"""","2021-12-31 03:39:36",67.0.250.37,"Mozilla/5.0 (Windows NT 10.0; Win64; x64) AppleWebKit/537.36 (KHTML, like Gecko) Chrome/96.0.4664.110 Safari/537.36",WebKit,Chrome,96.0.4664.110,Windows,10.0,ac0f2dffeffaa78d35a552e03d03f0a8
18,1,"""",test_procedure,confidence_rating,html-slider-response,60,169318,0.0-11.0-0.0-2.6,3SD15I2WEBVYX2RZ7BNPTJHHA9P63F,A3KF6O09H04SP7,3A4NIXBJ7F0KPTZ9QZ382L483GXLM7,JI4A4,JI4A4,3A4NIXBJ7F0KPTZ9QZ382L483GXLM7,3A4NIXBJ7F0KPTZ9QZ382L483GXLM7,338054,338054,1,0.03,"""",2357.599999964237,15,"<div id=""message-div""><p>How confident are you that your clockwise/counter-clockwise response just now was accurate? Please rate your confidence on the slider bar below.</p></div>","""","""","""",50,"""","""","""",15,"2021-12-31 03:39:36",67.0.250.37,"Mozilla/5.0 (Windows NT 10.0; Win64; x64) AppleWebKit/537.36 (KHTML, like Gecko) Chrome/96.0.4664.110 Safari/537.36",WebKit,Chrome,96.0.4664.110,Windows,10.0,ac0f2dffeffaa78d35a552e03d03f0a8
18,1,"""",test_procedure,fixation,html-keyboard-response,61,169822,0.0-11.0-0.0-0.7,3SD15I2WEBVYX2RZ7BNPTJHHA9P63F,A3KF6O09H04SP7,3A4NIXBJ7F0KPTZ9QZ382L483GXLM7,JI4A4,JI4A4,3A4NIXBJ7F0KPTZ9QZ382L483GXLM7,3A4NIXBJ7F0KPTZ9QZ382L483GXLM7,338054,338054,1,0.03,"""",null,null,"<div class = fixationbox><div class = fixation>+</div></div>","""","""","""","""","""","""","""","""","2021-12-31 03:39:36",67.0.250.37,"Mozilla/5.0 (Windows NT 10.0; Win64; x64) AppleWebKit/537.36 (KHTML, like Gecko) Chrome/96.0.4664.110 Safari/537.36",WebKit,Chrome,96.0.4664.110,Windows,10.0,ac0f2dffeffaa78d35a552e03d03f0a8
18,1,"""",test_procedure,stim_test,canvas-button-response,62,171341,0.0-11.0-0.0-1.7,3SD15I2WEBVYX2RZ7BNPTJHHA9P63F,A3KF6O09H04SP7,3A4NIXBJ7F0KPTZ9QZ382L483GXLM7,JI4A4,JI4A4,3A4NIXBJ7F0KPTZ9QZ382L483GXLM7,3A4NIXBJ7F0KPTZ9QZ382L483GXLM7,338054,338054,1,0.03,"""",1420.8999999761581,0,catchStim8,0,Counter-clockwise,true,"""",0.3,120,0.001,"""","2021-12-31 03:39:36",67.0.250.37,"Mozilla/5.0 (Windows NT 10.0; Win64; x64) AppleWebKit/537.36 (KHTML, like Gecko) Chrome/96.0.4664.110 Safari/537.36",WebKit,Chrome,96.0.4664.110,Windows,10.0,ac0f2dffeffaa78d35a552e03d03f0a8
18,1,"""",test_procedure,confidence_rating,html-slider-response,63,174179,0.0-11.0-0.0-2.7,3SD15I2WEBVYX2RZ7BNPTJHHA9P63F,A3KF6O09H04SP7,3A4NIXBJ7F0KPTZ9QZ382L483GXLM7,JI4A4,JI4A4,3A4NIXBJ7F0KPTZ9QZ382L483GXLM7,3A4NIXBJ7F0KPTZ9QZ382L483GXLM7,338054,338054,1,0.03,"""",2836.600000023842,3,"<div id=""message-div""><p>How confident are you that your clockwise/counter-clockwise response just now was accurate? Please rate your confidence on the slider bar below.</p></div>","""","""","""",50,"""","""","""",3,"2021-12-31 03:39:36",67.0.250.37,"Mozilla/5.0 (Windows NT 10.0; Win64; x64) AppleWebKit/537.36 (KHTML, like Gecko) Chrome/96.0.4664.110 Safari/537.36",WebKit,Chrome,96.0.4664.110,Windows,10.0,ac0f2dffeffaa78d35a552e03d03f0a8
18,1,"""",test_procedure,fixation,html-keyboard-response,64,174684,0.0-11.0-0.0-0.8,3SD15I2WEBVYX2RZ7BNPTJHHA9P63F,A3KF6O09H04SP7,3A4NIXBJ7F0KPTZ9QZ382L483GXLM7,JI4A4,JI4A4,3A4NIXBJ7F0KPTZ9QZ382L483GXLM7,3A4NIXBJ7F0KPTZ9QZ382L483GXLM7,338054,338054,1,0.03,"""",null,null,"<div class = fixationbox><div class = fixation>+</div></div>","""","""","""","""","""","""","""","""","2021-12-31 03:39:36",67.0.250.37,"Mozilla/5.0 (Windows NT 10.0; Win64; x64) AppleWebKit/537.36 (KHTML, like Gecko) Chrome/96.0.4664.110 Safari/537.36",WebKit,Chrome,96.0.4664.110,Windows,10.0,ac0f2dffeffaa78d35a552e03d03f0a8
18,1,"""",test_procedure,stim_test,canvas-button-response,65,176466,0.0-11.0-0.0-1.8,3SD15I2WEBVYX2RZ7BNPTJHHA9P63F,A3KF6O09H04SP7,3A4NIXBJ7F0KPTZ9QZ382L483GXLM7,JI4A4,JI4A4,3A4NIXBJ7F0KPTZ9QZ382L483GXLM7,3A4NIXBJ7F0KPTZ9QZ382L483GXLM7,338054,338054,1,0.03,"""",1694.5,0,stim1,1,Clockwise,false,"""",0.01,60,"""","""","2021-12-31 03:39:36",67.0.250.37,"Mozilla/5.0 (Windows NT 10.0; Win64; x64) AppleWebKit/537.36 (KHTML, like Gecko) Chrome/96.0.4664.110 Safari/537.36",WebKit,Chrome,96.0.4664.110,Windows,10.0,ac0f2dffeffaa78d35a552e03d03f0a8
18,1,"""",test_procedure,confidence_rating,html-slider-response,66,179162,0.0-11.0-0.0-2.8,3SD15I2WEBVYX2RZ7BNPTJHHA9P63F,A3KF6O09H04SP7,3A4NIXBJ7F0KPTZ9QZ382L483GXLM7,JI4A4,JI4A4,3A4NIXBJ7F0KPTZ9QZ382L483GXLM7,3A4NIXBJ7F0KPTZ9QZ382L483GXLM7,338054,338054,1,0.03,"""",2691.100000023842,8,"<div id=""message-div""><p>How confident are you that your clockwise/counter-clockwise response just now was accurate? Please rate your confidence on the slider bar below.</p></div>","""","""","""",50,"""","""","""",8,"2021-12-31 03:39:36",67.0.250.37,"Mozilla/5.0 (Windows NT 10.0; Win64; x64) AppleWebKit/537.36 (KHTML, like Gecko) Chrome/96.0.4664.110 Safari/537.36",WebKit,Chrome,96.0.4664.110,Windows,10.0,ac0f2dffeffaa78d35a552e03d03f0a8
18,1,"""",test_procedure,fixation,html-keyboard-response,67,179664,0.0-11.0-0.0-0.9,3SD15I2WEBVYX2RZ7BNPTJHHA9P63F,A3KF6O09H04SP7,3A4NIXBJ7F0KPTZ9QZ382L483GXLM7,JI4A4,JI4A4,3A4NIXBJ7F0KPTZ9QZ382L483GXLM7,3A4NIXBJ7F0KPTZ9QZ382L483GXLM7,338054,338054,1,0.03,"""",null,null,"<div class = fixationbox><div class = fixation>+</div></div>","""","""","""","""","""","""","""","""","2021-12-31 03:39:36",67.0.250.37,"Mozilla/5.0 (Windows NT 10.0; Win64; x64) AppleWebKit/537.36 (KHTML, like Gecko) Chrome/96.0.4664.110 Safari/537.36",WebKit,Chrome,96.0.4664.110,Windows,10.0,ac0f2dffeffaa78d35a552e03d03f0a8
18,1,"""",test_procedure,stim_test,canvas-button-response,68,180962,0.0-11.0-0.0-1.9,3SD15I2WEBVYX2RZ7BNPTJHHA9P63F,A3KF6O09H04SP7,3A4NIXBJ7F0KPTZ9QZ382L483GXLM7,JI4A4,JI4A4,3A4NIXBJ7F0KPTZ9QZ382L483GXLM7,3A4NIXBJ7F0KPTZ9QZ382L483GXLM7,338054,338054,1,0.03,"""",1194.2999999523163,0,catchStim6,0,Counter-clockwise,true,"""",0.3,120,0.6,"""","2021-12-31 03:39:36",67.0.250.37,"Mozilla/5.0 (Windows NT 10.0; Win64; x64) AppleWebKit/537.36 (KHTML, like Gecko) Chrome/96.0.4664.110 Safari/537.36",WebKit,Chrome,96.0.4664.110,Windows,10.0,ac0f2dffeffaa78d35a552e03d03f0a8
18,1,"""",test_procedure,confidence_rating,html-slider-response,69,183159,0.0-11.0-0.0-2.9,3SD15I2WEBVYX2RZ7BNPTJHHA9P63F,A3KF6O09H04SP7,3A4NIXBJ7F0KPTZ9QZ382L483GXLM7,JI4A4,JI4A4,3A4NIXBJ7F0KPTZ9QZ382L483GXLM7,3A4NIXBJ7F0KPTZ9QZ382L483GXLM7,338054,338054,1,0.03,"""",2193.800000011921,94,"<div id=""message-div""><p>How confident are you that your clockwise/counter-clockwise response just now was accurate? Please rate your confidence on the slider bar below.</p></div>","""","""","""",50,"""","""","""",94,"2021-12-31 03:39:36",67.0.250.37,"Mozilla/5.0 (Windows NT 10.0; Win64; x64) AppleWebKit/537.36 (KHTML, like Gecko) Chrome/96.0.4664.110 Safari/537.36",WebKit,Chrome,96.0.4664.110,Windows,10.0,ac0f2dffeffaa78d35a552e03d03f0a8
18,1,"""",test_procedure,fixation,html-keyboard-response,70,183664,0.0-11.0-0.0-0.10,3SD15I2WEBVYX2RZ7BNPTJHHA9P63F,A3KF6O09H04SP7,3A4NIXBJ7F0KPTZ9QZ382L483GXLM7,JI4A4,JI4A4,3A4NIXBJ7F0KPTZ9QZ382L483GXLM7,3A4NIXBJ7F0KPTZ9QZ382L483GXLM7,338054,338054,1,0.03,"""",null,null,"<div class = fixationbox><div class = fixation>+</div></div>","""","""","""","""","""","""","""","""","2021-12-31 03:39:36",67.0.250.37,"Mozilla/5.0 (Windows NT 10.0; Win64; x64) AppleWebKit/537.36 (KHTML, like Gecko) Chrome/96.0.4664.110 Safari/537.36",WebKit,Chrome,96.0.4664.110,Windows,10.0,ac0f2dffeffaa78d35a552e03d03f0a8
18,1,"""",test_procedure,stim_test,canvas-button-response,71,185606,0.0-11.0-0.0-1.10,3SD15I2WEBVYX2RZ7BNPTJHHA9P63F,A3KF6O09H04SP7,3A4NIXBJ7F0KPTZ9QZ382L483GXLM7,JI4A4,JI4A4,3A4NIXBJ7F0KPTZ9QZ382L483GXLM7,3A4NIXBJ7F0KPTZ9QZ382L483GXLM7,338054,338054,1,0.03,"""",1858.199999988079,1,catchStim5,1,Clockwise,true,"""",0.3,60,0.6,"""","2021-12-31 03:39:36",67.0.250.37,"Mozilla/5.0 (Windows NT 10.0; Win64; x64) AppleWebKit/537.36 (KHTML, like Gecko) Chrome/96.0.4664.110 Safari/537.36",WebKit,Chrome,96.0.4664.110,Windows,10.0,ac0f2dffeffaa78d35a552e03d03f0a8
18,1,"""",test_procedure,confidence_rating,html-slider-response,72,187351,0.0-11.0-0.0-2.10,3SD15I2WEBVYX2RZ7BNPTJHHA9P63F,A3KF6O09H04SP7,3A4NIXBJ7F0KPTZ9QZ382L483GXLM7,JI4A4,JI4A4,3A4NIXBJ7F0KPTZ9QZ382L483GXLM7,3A4NIXBJ7F0KPTZ9QZ382L483GXLM7,338054,338054,1,0.03,"""",1742.7999999523163,94,"<div id=""message-div""><p>How confident are you that your clockwise/counter-clockwise response just now was accurate? Please rate your confidence on the slider bar below.</p></div>","""","""","""",50,"""","""","""",94,"2021-12-31 03:39:36",67.0.250.37,"Mozilla/5.0 (Windows NT 10.0; Win64; x64) AppleWebKit/537.36 (KHTML, like Gecko) Chrome/96.0.4664.110 Safari/537.36",WebKit,Chrome,96.0.4664.110,Windows,10.0,ac0f2dffeffaa78d35a552e03d03f0a8
18,1,"""",test_procedure,fixation,html-keyboard-response,73,187856,0.0-11.0-0.0-0.11,3SD15I2WEBVYX2RZ7BNPTJHHA9P63F,A3KF6O09H04SP7,3A4NIXBJ7F0KPTZ9QZ382L483GXLM7,JI4A4,JI4A4,3A4NIXBJ7F0KPTZ9QZ382L483GXLM7,3A4NIXBJ7F0KPTZ9QZ382L483GXLM7,338054,338054,1,0.03,"""",null,null,"<div class = fixationbox><div class = fixation>+</div></div>","""","""","""","""","""","""","""","""","2021-12-31 03:39:36",67.0.250.37,"Mozilla/5.0 (Windows NT 10.0; Win64; x64) AppleWebKit/537.36 (KHTML, like Gecko) Chrome/96.0.4664.110 Safari/537.36",WebKit,Chrome,96.0.4664.110,Windows,10.0,ac0f2dffeffaa78d35a552e03d03f0a8
18,1,"""",test_procedure,stim_test,canvas-button-response,74,189668,0.0-11.0-0.0-1.11,3SD15I2WEBVYX2RZ7BNPTJHHA9P63F,A3KF6O09H04SP7,3A4NIXBJ7F0KPTZ9QZ382L483GXLM7,JI4A4,JI4A4,3A4NIXBJ7F0KPTZ9QZ382L483GXLM7,3A4NIXBJ7F0KPTZ9QZ382L483GXLM7,338054,338054,1,0.03,"""",1714.8999999761581,0,stim2,0,Counter-clockwise,true,"""",0.01,120,"""","""","2021-12-31 03:39:36",67.0.250.37,"Mozilla/5.0 (Windows NT 10.0; Win64; x64) AppleWebKit/537.36 (KHTML, like Gecko) Chrome/96.0.4664.110 Safari/537.36",WebKit,Chrome,96.0.4664.110,Windows,10.0,ac0f2dffeffaa78d35a552e03d03f0a8
18,1,"""",test_procedure,confidence_rating,html-slider-response,75,191549,0.0-11.0-0.0-2.11,3SD15I2WEBVYX2RZ7BNPTJHHA9P63F,A3KF6O09H04SP7,3A4NIXBJ7F0KPTZ9QZ382L483GXLM7,JI4A4,JI4A4,3A4NIXBJ7F0KPTZ9QZ382L483GXLM7,3A4NIXBJ7F0KPTZ9QZ382L483GXLM7,338054,338054,1,0.03,"""",1875.800000011921,14,"<div id=""message-div""><p>How confident are you that your clockwise/counter-clockwise response just now was accurate? Please rate your confidence on the slider bar below.</p></div>","""","""","""",50,"""","""","""",14,"2021-12-31 03:39:36",67.0.250.37,"Mozilla/5.0 (Windows NT 10.0; Win64; x64) AppleWebKit/537.36 (KHTML, like Gecko) Chrome/96.0.4664.110 Safari/537.36",WebKit,Chrome,96.0.4664.110,Windows,10.0,ac0f2dffeffaa78d35a552e03d03f0a8
18,1,"""",test_procedure,fixation,html-keyboard-response,76,192052,0.0-11.0-0.0-0.12,3SD15I2WEBVYX2RZ7BNPTJHHA9P63F,A3KF6O09H04SP7,3A4NIXBJ7F0KPTZ9QZ382L483GXLM7,JI4A4,JI4A4,3A4NIXBJ7F0KPTZ9QZ382L483GXLM7,3A4NIXBJ7F0KPTZ9QZ382L483GXLM7,338054,338054,1,0.03,"""",null,null,"<div class = fixationbox><div class = fixation>+</div></div>","""","""","""","""","""","""","""","""","2021-12-31 03:39:36",67.0.250.37,"Mozilla/5.0 (Windows NT 10.0; Win64; x64) AppleWebKit/537.36 (KHTML, like Gecko) Chrome/96.0.4664.110 Safari/537.36",WebKit,Chrome,96.0.4664.110,Windows,10.0,ac0f2dffeffaa78d35a552e03d03f0a8
18,1,"""",test_procedure,stim_test,canvas-button-response,77,194020,0.0-11.0-0.0-1.12,3SD15I2WEBVYX2RZ7BNPTJHHA9P63F,A3KF6O09H04SP7,3A4NIXBJ7F0KPTZ9QZ382L483GXLM7,JI4A4,JI4A4,3A4NIXBJ7F0KPTZ9QZ382L483GXLM7,3A4NIXBJ7F0KPTZ9QZ382L483GXLM7,338054,338054,1,0.03,"""",1861.199999988079,1,stim3,1,Clockwise,true,"""",0.3,60,"""","""","2021-12-31 03:39:36",67.0.250.37,"Mozilla/5.0 (Windows NT 10.0; Win64; x64) AppleWebKit/537.36 (KHTML, like Gecko) Chrome/96.0.4664.110 Safari/537.36",WebKit,Chrome,96.0.4664.110,Windows,10.0,ac0f2dffeffaa78d35a552e03d03f0a8
18,1,"""",test_procedure,confidence_rating,html-slider-response,78,196651,0.0-11.0-0.0-2.12,3SD15I2WEBVYX2RZ7BNPTJHHA9P63F,A3KF6O09H04SP7,3A4NIXBJ7F0KPTZ9QZ382L483GXLM7,JI4A4,JI4A4,3A4NIXBJ7F0KPTZ9QZ382L483GXLM7,3A4NIXBJ7F0KPTZ9QZ382L483GXLM7,338054,338054,1,0.03,"""",2629.600000023842,1,"<div id=""message-div""><p>How confident are you that your clockwise/counter-clockwise response just now was accurate? Please rate your confidence on the slider bar below.</p></div>","""","""","""",50,"""","""","""",1,"2021-12-31 03:39:36",67.0.250.37,"Mozilla/5.0 (Windows NT 10.0; Win64; x64) AppleWebKit/537.36 (KHTML, like Gecko) Chrome/96.0.4664.110 Safari/537.36",WebKit,Chrome,96.0.4664.110,Windows,10.0,ac0f2dffeffaa78d35a552e03d03f0a8
18,1,"""",test_procedure,fixation,html-keyboard-response,79,197158,0.0-11.0-0.0-0.13,3SD15I2WEBVYX2RZ7BNPTJHHA9P63F,A3KF6O09H04SP7,3A4NIXBJ7F0KPTZ9QZ382L483GXLM7,JI4A4,JI4A4,3A4NIXBJ7F0KPTZ9QZ382L483GXLM7,3A4NIXBJ7F0KPTZ9QZ382L483GXLM7,338054,338054,1,0.03,"""",null,null,"<div class = fixationbox><div class = fixation>+</div></div>","""","""","""","""","""","""","""","""","2021-12-31 03:39:36",67.0.250.37,"Mozilla/5.0 (Windows NT 10.0; Win64; x64) AppleWebKit/537.36 (KHTML, like Gecko) Chrome/96.0.4664.110 Safari/537.36",WebKit,Chrome,96.0.4664.110,Windows,10.0,ac0f2dffeffaa78d35a552e03d03f0a8
18,1,"""",test_procedure,stim_test,canvas-button-response,80,198764,0.0-11.0-0.0-1.13,3SD15I2WEBVYX2RZ7BNPTJHHA9P63F,A3KF6O09H04SP7,3A4NIXBJ7F0KPTZ9QZ382L483GXLM7,JI4A4,JI4A4,3A4NIXBJ7F0KPTZ9QZ382L483GXLM7,3A4NIXBJ7F0KPTZ9QZ382L483GXLM7,338054,338054,1,0.03,"""",1522.0999999642372,0,stim3,1,Clockwise,false,"""",0.3,60,"""","""","2021-12-31 03:39:36",67.0.250.37,"Mozilla/5.0 (Windows NT 10.0; Win64; x64) AppleWebKit/537.36 (KHTML, like Gecko) Chrome/96.0.4664.110 Safari/537.36",WebKit,Chrome,96.0.4664.110,Windows,10.0,ac0f2dffeffaa78d35a552e03d03f0a8
18,1,"""",test_procedure,confidence_rating,html-slider-response,81,200920,0.0-11.0-0.0-2.13,3SD15I2WEBVYX2RZ7BNPTJHHA9P63F,A3KF6O09H04SP7,3A4NIXBJ7F0KPTZ9QZ382L483GXLM7,JI4A4,JI4A4,3A4NIXBJ7F0KPTZ9QZ382L483GXLM7,3A4NIXBJ7F0KPTZ9QZ382L483GXLM7,338054,338054,1,0.03,"""",2151.800000011921,15,"<div id=""message-div""><p>How confident are you that your clockwise/counter-clockwise response just now was accurate? Please rate your confidence on the slider bar below.</p></div>","""","""","""",50,"""","""","""",15,"2021-12-31 03:39:36",67.0.250.37,"Mozilla/5.0 (Windows NT 10.0; Win64; x64) AppleWebKit/537.36 (KHTML, like Gecko) Chrome/96.0.4664.110 Safari/537.36",WebKit,Chrome,96.0.4664.110,Windows,10.0,ac0f2dffeffaa78d35a552e03d03f0a8
18,1,"""",test_procedure,fixation,html-keyboard-response,82,201423,0.0-11.0-0.0-0.14,3SD15I2WEBVYX2RZ7BNPTJHHA9P63F,A3KF6O09H04SP7,3A4NIXBJ7F0KPTZ9QZ382L483GXLM7,JI4A4,JI4A4,3A4NIXBJ7F0KPTZ9QZ382L483GXLM7,3A4NIXBJ7F0KPTZ9QZ382L483GXLM7,338054,338054,1,0.03,"""",null,null,"<div class = fixationbox><div class = fixation>+</div></div>","""","""","""","""","""","""","""","""","2021-12-31 03:39:36",67.0.250.37,"Mozilla/5.0 (Windows NT 10.0; Win64; x64) AppleWebKit/537.36 (KHTML, like Gecko) Chrome/96.0.4664.110 Safari/537.36",WebKit,Chrome,96.0.4664.110,Windows,10.0,ac0f2dffeffaa78d35a552e03d03f0a8
18,1,"""",test_procedure,stim_test,canvas-button-response,83,204169,0.0-11.0-0.0-1.14,3SD15I2WEBVYX2RZ7BNPTJHHA9P63F,A3KF6O09H04SP7,3A4NIXBJ7F0KPTZ9QZ382L483GXLM7,JI4A4,JI4A4,3A4NIXBJ7F0KPTZ9QZ382L483GXLM7,3A4NIXBJ7F0KPTZ9QZ382L483GXLM7,338054,338054,1,0.03,"""",2663.699999988079,0,stim4,0,Counter-clockwise,true,"""",0.3,120,"""","""","2021-12-31 03:39:36",67.0.250.37,"Mozilla/5.0 (Windows NT 10.0; Win64; x64) AppleWebKit/537.36 (KHTML, like Gecko) Chrome/96.0.4664.110 Safari/537.36",WebKit,Chrome,96.0.4664.110,Windows,10.0,ac0f2dffeffaa78d35a552e03d03f0a8
18,1,"""",test_procedure,confidence_rating,html-slider-response,84,206102,0.0-11.0-0.0-2.14,3SD15I2WEBVYX2RZ7BNPTJHHA9P63F,A3KF6O09H04SP7,3A4NIXBJ7F0KPTZ9QZ382L483GXLM7,JI4A4,JI4A4,3A4NIXBJ7F0KPTZ9QZ382L483GXLM7,3A4NIXBJ7F0KPTZ9QZ382L483GXLM7,338054,338054,1,0.03,"""",1922.9000000357628,1,"<div id=""message-div""><p>How confident are you that your clockwise/counter-clockwise response just now was accurate? Please rate your confidence on the slider bar below.</p></div>","""","""","""",50,"""","""","""",1,"2021-12-31 03:39:36",67.0.250.37,"Mozilla/5.0 (Windows NT 10.0; Win64; x64) AppleWebKit/537.36 (KHTML, like Gecko) Chrome/96.0.4664.110 Safari/537.36",WebKit,Chrome,96.0.4664.110,Windows,10.0,ac0f2dffeffaa78d35a552e03d03f0a8
18,1,"""",test_procedure,fixation,html-keyboard-response,85,206604,0.0-11.0-0.0-0.15,3SD15I2WEBVYX2RZ7BNPTJHHA9P63F,A3KF6O09H04SP7,3A4NIXBJ7F0KPTZ9QZ382L483GXLM7,JI4A4,JI4A4,3A4NIXBJ7F0KPTZ9QZ382L483GXLM7,3A4NIXBJ7F0KPTZ9QZ382L483GXLM7,338054,338054,1,0.03,"""",null,null,"<div class = fixationbox><div class = fixation>+</div></div>","""","""","""","""","""","""","""","""","2021-12-31 03:39:36",67.0.250.37,"Mozilla/5.0 (Windows NT 10.0; Win64; x64) AppleWebKit/537.36 (KHTML, like Gecko) Chrome/96.0.4664.110 Safari/537.36",WebKit,Chrome,96.0.4664.110,Windows,10.0,ac0f2dffeffaa78d35a552e03d03f0a8
18,1,"""",test_procedure,stim_test,canvas-button-response,86,208229,0.0-11.0-0.0-1.15,3SD15I2WEBVYX2RZ7BNPTJHHA9P63F,A3KF6O09H04SP7,3A4NIXBJ7F0KPTZ9QZ382L483GXLM7,JI4A4,JI4A4,3A4NIXBJ7F0KPTZ9QZ382L483GXLM7,3A4NIXBJ7F0KPTZ9QZ382L483GXLM7,338054,338054,1,0.03,"""",1551.199999988079,1,stim3,1,Clockwise,true,"""",0.3,60,"""","""","2021-12-31 03:39:36",67.0.250.37,"Mozilla/5.0 (Windows NT 10.0; Win64; x64) AppleWebKit/537.36 (KHTML, like Gecko) Chrome/96.0.4664.110 Safari/537.36",WebKit,Chrome,96.0.4664.110,Windows,10.0,ac0f2dffeffaa78d35a552e03d03f0a8
18,1,"""",test_procedure,confidence_rating,html-slider-response,87,210388,0.0-11.0-0.0-2.15,3SD15I2WEBVYX2RZ7BNPTJHHA9P63F,A3KF6O09H04SP7,3A4NIXBJ7F0KPTZ9QZ382L483GXLM7,JI4A4,JI4A4,3A4NIXBJ7F0KPTZ9QZ382L483GXLM7,3A4NIXBJ7F0KPTZ9QZ382L483GXLM7,338054,338054,1,0.03,"""",2157.100000023842,12,"<div id=""message-div""><p>How confident are you that your clockwise/counter-clockwise response just now was accurate? Please rate your confidence on the slider bar below.</p></div>","""","""","""",50,"""","""","""",12,"2021-12-31 03:39:36",67.0.250.37,"Mozilla/5.0 (Windows NT 10.0; Win64; x64) AppleWebKit/537.36 (KHTML, like Gecko) Chrome/96.0.4664.110 Safari/537.36",WebKit,Chrome,96.0.4664.110,Windows,10.0,ac0f2dffeffaa78d35a552e03d03f0a8
18,1,"""",test_procedure,fixation,html-keyboard-response,88,210895,0.0-11.0-0.0-0.16,3SD15I2WEBVYX2RZ7BNPTJHHA9P63F,A3KF6O09H04SP7,3A4NIXBJ7F0KPTZ9QZ382L483GXLM7,JI4A4,JI4A4,3A4NIXBJ7F0KPTZ9QZ382L483GXLM7,3A4NIXBJ7F0KPTZ9QZ382L483GXLM7,338054,338054,1,0.03,"""",null,null,"<div class = fixationbox><div class = fixation>+</div></div>","""","""","""","""","""","""","""","""","2021-12-31 03:39:36",67.0.250.37,"Mozilla/5.0 (Windows NT 10.0; Win64; x64) AppleWebKit/537.36 (KHTML, like Gecko) Chrome/96.0.4664.110 Safari/537.36",WebKit,Chrome,96.0.4664.110,Windows,10.0,ac0f2dffeffaa78d35a552e03d03f0a8
18,1,"""",test_procedure,stim_test,canvas-button-response,89,212922,0.0-11.0-0.0-1.16,3SD15I2WEBVYX2RZ7BNPTJHHA9P63F,A3KF6O09H04SP7,3A4NIXBJ7F0KPTZ9QZ382L483GXLM7,JI4A4,JI4A4,3A4NIXBJ7F0KPTZ9QZ382L483GXLM7,3A4NIXBJ7F0KPTZ9QZ382L483GXLM7,338054,338054,1,0.03,"""",1928.4000000357628,0,catchStim7,1,Clockwise,false,"""",0.3,60,0.001,"""","2021-12-31 03:39:36",67.0.250.37,"Mozilla/5.0 (Windows NT 10.0; Win64; x64) AppleWebKit/537.36 (KHTML, like Gecko) Chrome/96.0.4664.110 Safari/537.36",WebKit,Chrome,96.0.4664.110,Windows,10.0,ac0f2dffeffaa78d35a552e03d03f0a8
18,1,"""",test_procedure,confidence_rating,html-slider-response,90,214907,0.0-11.0-0.0-2.16,3SD15I2WEBVYX2RZ7BNPTJHHA9P63F,A3KF6O09H04SP7,3A4NIXBJ7F0KPTZ9QZ382L483GXLM7,JI4A4,JI4A4,3A4NIXBJ7F0KPTZ9QZ382L483GXLM7,3A4NIXBJ7F0KPTZ9QZ382L483GXLM7,338054,338054,1,0.03,"""",1982.3999999761581,1,"<div id=""message-div""><p>How confident are you that your clockwise/counter-clockwise response just now was accurate? Please rate your confidence on the slider bar below.</p></div>","""","""","""",50,"""","""","""",1,"2021-12-31 03:39:36",67.0.250.37,"Mozilla/5.0 (Windows NT 10.0; Win64; x64) AppleWebKit/537.36 (KHTML, like Gecko) Chrome/96.0.4664.110 Safari/537.36",WebKit,Chrome,96.0.4664.110,Windows,10.0,ac0f2dffeffaa78d35a552e03d03f0a8
18,1,"""",test_procedure,fixation,html-keyboard-response,91,215408,0.0-11.0-0.0-0.17,3SD15I2WEBVYX2RZ7BNPTJHHA9P63F,A3KF6O09H04SP7,3A4NIXBJ7F0KPTZ9QZ382L483GXLM7,JI4A4,JI4A4,3A4NIXBJ7F0KPTZ9QZ382L483GXLM7,3A4NIXBJ7F0KPTZ9QZ382L483GXLM7,338054,338054,1,0.03,"""",null,null,"<div class = fixationbox><div class = fixation>+</div></div>","""","""","""","""","""","""","""","""","2021-12-31 03:39:36",67.0.250.37,"Mozilla/5.0 (Windows NT 10.0; Win64; x64) AppleWebKit/537.36 (KHTML, like Gecko) Chrome/96.0.4664.110 Safari/537.36",WebKit,Chrome,96.0.4664.110,Windows,10.0,ac0f2dffeffaa78d35a552e03d03f0a8
18,1,"""",test_procedure,stim_test,canvas-button-response,92,218401,0.0-11.0-0.0-1.17,3SD15I2WEBVYX2RZ7BNPTJHHA9P63F,A3KF6O09H04SP7,3A4NIXBJ7F0KPTZ9QZ382L483GXLM7,JI4A4,JI4A4,3A4NIXBJ7F0KPTZ9QZ382L483GXLM7,3A4NIXBJ7F0KPTZ9QZ382L483GXLM7,338054,338054,1,0.03,"""",2886.100000023842,1,stim4,0,Counter-clockwise,false,"""",0.3,120,"""","""","2021-12-31 03:39:36",67.0.250.37,"Mozilla/5.0 (Windows NT 10.0; Win64; x64) AppleWebKit/537.36 (KHTML, like Gecko) Chrome/96.0.4664.110 Safari/537.36",WebKit,Chrome,96.0.4664.110,Windows,10.0,ac0f2dffeffaa78d35a552e03d03f0a8
18,1,"""",test_procedure,confidence_rating,html-slider-response,93,221144,0.0-11.0-0.0-2.17,3SD15I2WEBVYX2RZ7BNPTJHHA9P63F,A3KF6O09H04SP7,3A4NIXBJ7F0KPTZ9QZ382L483GXLM7,JI4A4,JI4A4,3A4NIXBJ7F0KPTZ9QZ382L483GXLM7,3A4NIXBJ7F0KPTZ9QZ382L483GXLM7,338054,338054,1,0.03,"""",2737.5,2,"<div id=""message-div""><p>How confident are you that your clockwise/counter-clockwise response just now was accurate? Please rate your confidence on the slider bar below.</p></div>","""","""","""",50,"""","""","""",2,"2021-12-31 03:39:36",67.0.250.37,"Mozilla/5.0 (Windows NT 10.0; Win64; x64) AppleWebKit/537.36 (KHTML, like Gecko) Chrome/96.0.4664.110 Safari/537.36",WebKit,Chrome,96.0.4664.110,Windows,10.0,ac0f2dffeffaa78d35a552e03d03f0a8
18,1,"""",test_procedure,fixation,html-keyboard-response,94,221646,0.0-11.0-0.0-0.18,3SD15I2WEBVYX2RZ7BNPTJHHA9P63F,A3KF6O09H04SP7,3A4NIXBJ7F0KPTZ9QZ382L483GXLM7,JI4A4,JI4A4,3A4NIXBJ7F0KPTZ9QZ382L483GXLM7,3A4NIXBJ7F0KPTZ9QZ382L483GXLM7,338054,338054,1,0.03,"""",null,null,"<div class = fixationbox><div class = fixation>+</div></div>","""","""","""","""","""","""","""","""","2021-12-31 03:39:36",67.0.250.37,"Mozilla/5.0 (Windows NT 10.0; Win64; x64) AppleWebKit/537.36 (KHTML, like Gecko) Chrome/96.0.4664.110 Safari/537.36",WebKit,Chrome,96.0.4664.110,Windows,10.0,ac0f2dffeffaa78d35a552e03d03f0a8
18,1,"""",test_procedure,stim_test,canvas-button-response,95,223239,0.0-11.0-0.0-1.18,3SD15I2WEBVYX2RZ7BNPTJHHA9P63F,A3KF6O09H04SP7,3A4NIXBJ7F0KPTZ9QZ382L483GXLM7,JI4A4,JI4A4,3A4NIXBJ7F0KPTZ9QZ382L483GXLM7,3A4NIXBJ7F0KPTZ9QZ382L483GXLM7,338054,338054,1,0.03,"""",1523,0,stim2,0,Counter-clockwise,true,"""",0.01,120,"""","""","2021-12-31 03:39:36",67.0.250.37,"Mozilla/5.0 (Windows NT 10.0; Win64; x64) AppleWebKit/537.36 (KHTML, like Gecko) Chrome/96.0.4664.110 Safari/537.36",WebKit,Chrome,96.0.4664.110,Windows,10.0,ac0f2dffeffaa78d35a552e03d03f0a8
18,1,"""",test_procedure,confidence_rating,html-slider-response,96,225071,0.0-11.0-0.0-2.18,3SD15I2WEBVYX2RZ7BNPTJHHA9P63F,A3KF6O09H04SP7,3A4NIXBJ7F0KPTZ9QZ382L483GXLM7,JI4A4,JI4A4,3A4NIXBJ7F0KPTZ9QZ382L483GXLM7,3A4NIXBJ7F0KPTZ9QZ382L483GXLM7,338054,338054,1,0.03,"""",1831,12,"<div id=""message-div""><p>How confident are you that your clockwise/counter-clockwise response just now was accurate? Please rate your confidence on the slider bar below.</p></div>","""","""","""",50,"""","""","""",12,"2021-12-31 03:39:36",67.0.250.37,"Mozilla/5.0 (Windows NT 10.0; Win64; x64) AppleWebKit/537.36 (KHTML, like Gecko) Chrome/96.0.4664.110 Safari/537.36",WebKit,Chrome,96.0.4664.110,Windows,10.0,ac0f2dffeffaa78d35a552e03d03f0a8
18,1,"""",test_procedure,fixation,html-keyboard-response,97,225578,0.0-11.0-0.0-0.19,3SD15I2WEBVYX2RZ7BNPTJHHA9P63F,A3KF6O09H04SP7,3A4NIXBJ7F0KPTZ9QZ382L483GXLM7,JI4A4,JI4A4,3A4NIXBJ7F0KPTZ9QZ382L483GXLM7,3A4NIXBJ7F0KPTZ9QZ382L483GXLM7,338054,338054,1,0.03,"""",null,null,"<div class = fixationbox><div class = fixation>+</div></div>","""","""","""","""","""","""","""","""","2021-12-31 03:39:36",67.0.250.37,"Mozilla/5.0 (Windows NT 10.0; Win64; x64) AppleWebKit/537.36 (KHTML, like Gecko) Chrome/96.0.4664.110 Safari/537.36",WebKit,Chrome,96.0.4664.110,Windows,10.0,ac0f2dffeffaa78d35a552e03d03f0a8
18,1,"""",test_procedure,stim_test,canvas-button-response,98,227022,0.0-11.0-0.0-1.19,3SD15I2WEBVYX2RZ7BNPTJHHA9P63F,A3KF6O09H04SP7,3A4NIXBJ7F0KPTZ9QZ382L483GXLM7,JI4A4,JI4A4,3A4NIXBJ7F0KPTZ9QZ382L483GXLM7,3A4NIXBJ7F0KPTZ9QZ382L483GXLM7,338054,338054,1,0.03,"""",1355.5,1,catchStim1,1,Clockwise,true,"""",0.01,60,0.6,"""","2021-12-31 03:39:36",67.0.250.37,"Mozilla/5.0 (Windows NT 10.0; Win64; x64) AppleWebKit/537.36 (KHTML, like Gecko) Chrome/96.0.4664.110 Safari/537.36",WebKit,Chrome,96.0.4664.110,Windows,10.0,ac0f2dffeffaa78d35a552e03d03f0a8
18,1,"""",test_procedure,confidence_rating,html-slider-response,99,229077,0.0-11.0-0.0-2.19,3SD15I2WEBVYX2RZ7BNPTJHHA9P63F,A3KF6O09H04SP7,3A4NIXBJ7F0KPTZ9QZ382L483GXLM7,JI4A4,JI4A4,3A4NIXBJ7F0KPTZ9QZ382L483GXLM7,3A4NIXBJ7F0KPTZ9QZ382L483GXLM7,338054,338054,1,0.03,"""",2053,94,"<div id=""message-div""><p>How confident are you that your clockwise/counter-clockwise response just now was accurate? Please rate your confidence on the slider bar below.</p></div>","""","""","""",50,"""","""","""",94,"2021-12-31 03:39:36",67.0.250.37,"Mozilla/5.0 (Windows NT 10.0; Win64; x64) AppleWebKit/537.36 (KHTML, like Gecko) Chrome/96.0.4664.110 Safari/537.36",WebKit,Chrome,96.0.4664.110,Windows,10.0,ac0f2dffeffaa78d35a552e03d03f0a8
18,1,"""",test_procedure,fixation,html-keyboard-response,100,229579,0.0-11.0-0.0-0.20,3SD15I2WEBVYX2RZ7BNPTJHHA9P63F,A3KF6O09H04SP7,3A4NIXBJ7F0KPTZ9QZ382L483GXLM7,JI4A4,JI4A4,3A4NIXBJ7F0KPTZ9QZ382L483GXLM7,3A4NIXBJ7F0KPTZ9QZ382L483GXLM7,338054,338054,1,0.03,"""",null,null,"<div class = fixationbox><div class = fixation>+</div></div>","""","""","""","""","""","""","""","""","2021-12-31 03:39:36",67.0.250.37,"Mozilla/5.0 (Windows NT 10.0; Win64; x64) AppleWebKit/537.36 (KHTML, like Gecko) Chrome/96.0.4664.110 Safari/537.36",WebKit,Chrome,96.0.4664.110,Windows,10.0,ac0f2dffeffaa78d35a552e03d03f0a8
18,1,"""",test_procedure,stim_test,canvas-button-response,101,231492,0.0-11.0-0.0-1.20,3SD15I2WEBVYX2RZ7BNPTJHHA9P63F,A3KF6O09H04SP7,3A4NIXBJ7F0KPTZ9QZ382L483GXLM7,JI4A4,JI4A4,3A4NIXBJ7F0KPTZ9QZ382L483GXLM7,3A4NIXBJ7F0KPTZ9QZ382L483GXLM7,338054,338054,1,0.03,"""",1820,0,stim1,1,Clockwise,false,"""",0.01,60,"""","""","2021-12-31 03:39:36",67.0.250.37,"Mozilla/5.0 (Windows NT 10.0; Win64; x64) AppleWebKit/537.36 (KHTML, like Gecko) Chrome/96.0.4664.110 Safari/537.36",WebKit,Chrome,96.0.4664.110,Windows,10.0,ac0f2dffeffaa78d35a552e03d03f0a8
18,1,"""",test_procedure,confidence_rating,html-slider-response,102,233443,0.0-11.0-0.0-2.20,3SD15I2WEBVYX2RZ7BNPTJHHA9P63F,A3KF6O09H04SP7,3A4NIXBJ7F0KPTZ9QZ382L483GXLM7,JI4A4,JI4A4,3A4NIXBJ7F0KPTZ9QZ382L483GXLM7,3A4NIXBJ7F0KPTZ9QZ382L483GXLM7,338054,338054,1,0.03,"""",1945.1000000238419,13,"<div id=""message-div""><p>How confident are you that your clockwise/counter-clockwise response just now was accurate? Please rate your confidence on the slider bar below.</p></div>","""","""","""",50,"""","""","""",13,"2021-12-31 03:39:36",67.0.250.37,"Mozilla/5.0 (Windows NT 10.0; Win64; x64) AppleWebKit/537.36 (KHTML, like Gecko) Chrome/96.0.4664.110 Safari/537.36",WebKit,Chrome,96.0.4664.110,Windows,10.0,ac0f2dffeffaa78d35a552e03d03f0a8
18,1,"""",test_procedure,fixation,html-keyboard-response,103,233945,0.0-11.0-0.0-0.21,3SD15I2WEBVYX2RZ7BNPTJHHA9P63F,A3KF6O09H04SP7,3A4NIXBJ7F0KPTZ9QZ382L483GXLM7,JI4A4,JI4A4,3A4NIXBJ7F0KPTZ9QZ382L483GXLM7,3A4NIXBJ7F0KPTZ9QZ382L483GXLM7,338054,338054,1,0.03,"""",null,null,"<div class = fixationbox><div class = fixation>+</div></div>","""","""","""","""","""","""","""","""","2021-12-31 03:39:36",67.0.250.37,"Mozilla/5.0 (Windows NT 10.0; Win64; x64) AppleWebKit/537.36 (KHTML, like Gecko) Chrome/96.0.4664.110 Safari/537.36",WebKit,Chrome,96.0.4664.110,Windows,10.0,ac0f2dffeffaa78d35a552e03d03f0a8
18,1,"""",test_procedure,stim_test,canvas-button-response,104,235850,0.0-11.0-0.0-1.21,3SD15I2WEBVYX2RZ7BNPTJHHA9P63F,A3KF6O09H04SP7,3A4NIXBJ7F0KPTZ9QZ382L483GXLM7,JI4A4,JI4A4,3A4NIXBJ7F0KPTZ9QZ382L483GXLM7,3A4NIXBJ7F0KPTZ9QZ382L483GXLM7,338054,338054,1,0.03,"""",1814.5,1,stim4,0,Counter-clockwise,false,"""",0.3,120,"""","""","2021-12-31 03:39:36",67.0.250.37,"Mozilla/5.0 (Windows NT 10.0; Win64; x64) AppleWebKit/537.36 (KHTML, like Gecko) Chrome/96.0.4664.110 Safari/537.36",WebKit,Chrome,96.0.4664.110,Windows,10.0,ac0f2dffeffaa78d35a552e03d03f0a8
18,1,"""",test_procedure,confidence_rating,html-slider-response,105,237865,0.0-11.0-0.0-2.21,3SD15I2WEBVYX2RZ7BNPTJHHA9P63F,A3KF6O09H04SP7,3A4NIXBJ7F0KPTZ9QZ382L483GXLM7,JI4A4,JI4A4,3A4NIXBJ7F0KPTZ9QZ382L483GXLM7,3A4NIXBJ7F0KPTZ9QZ382L483GXLM7,338054,338054,1,0.03,"""",2012.8999999761581,0,"<div id=""message-div""><p>How confident are you that your clockwise/counter-clockwise response just now was accurate? Please rate your confidence on the slider bar below.</p></div>","""","""","""",50,"""","""","""",0,"2021-12-31 03:39:36",67.0.250.37,"Mozilla/5.0 (Windows NT 10.0; Win64; x64) AppleWebKit/537.36 (KHTML, like Gecko) Chrome/96.0.4664.110 Safari/537.36",WebKit,Chrome,96.0.4664.110,Windows,10.0,ac0f2dffeffaa78d35a552e03d03f0a8
18,1,"""",test_procedure,fixation,html-keyboard-response,106,238370,0.0-11.0-0.0-0.22,3SD15I2WEBVYX2RZ7BNPTJHHA9P63F,A3KF6O09H04SP7,3A4NIXBJ7F0KPTZ9QZ382L483GXLM7,JI4A4,JI4A4,3A4NIXBJ7F0KPTZ9QZ382L483GXLM7,3A4NIXBJ7F0KPTZ9QZ382L483GXLM7,338054,338054,1,0.03,"""",null,null,"<div class = fixationbox><div class = fixation>+</div></div>","""","""","""","""","""","""","""","""","2021-12-31 03:39:36",67.0.250.37,"Mozilla/5.0 (Windows NT 10.0; Win64; x64) AppleWebKit/537.36 (KHTML, like Gecko) Chrome/96.0.4664.110 Safari/537.36",WebKit,Chrome,96.0.4664.110,Windows,10.0,ac0f2dffeffaa78d35a552e03d03f0a8
18,1,"""",test_procedure,stim_test,canvas-button-response,107,239945,0.0-11.0-0.0-1.22,3SD15I2WEBVYX2RZ7BNPTJHHA9P63F,A3KF6O09H04SP7,3A4NIXBJ7F0KPTZ9QZ382L483GXLM7,JI4A4,JI4A4,3A4NIXBJ7F0KPTZ9QZ382L483GXLM7,3A4NIXBJ7F0KPTZ9QZ382L483GXLM7,338054,338054,1,0.03,"""",1482.800000011921,1,stim2,0,Counter-clockwise,false,"""",0.01,120,"""","""","2021-12-31 03:39:36",67.0.250.37,"Mozilla/5.0 (Windows NT 10.0; Win64; x64) AppleWebKit/537.36 (KHTML, like Gecko) Chrome/96.0.4664.110 Safari/537.36",WebKit,Chrome,96.0.4664.110,Windows,10.0,ac0f2dffeffaa78d35a552e03d03f0a8
18,1,"""",test_procedure,confidence_rating,html-slider-response,108,242032,0.0-11.0-0.0-2.22,3SD15I2WEBVYX2RZ7BNPTJHHA9P63F,A3KF6O09H04SP7,3A4NIXBJ7F0KPTZ9QZ382L483GXLM7,JI4A4,JI4A4,3A4NIXBJ7F0KPTZ9QZ382L483GXLM7,3A4NIXBJ7F0KPTZ9QZ382L483GXLM7,338054,338054,1,0.03,"""",2085.899999976158,32,"<div id=""message-div""><p>How confident are you that your clockwise/counter-clockwise response just now was accurate? Please rate your confidence on the slider bar below.</p></div>","""","""","""",50,"""","""","""",32,"2021-12-31 03:39:36",67.0.250.37,"Mozilla/5.0 (Windows NT 10.0; Win64; x64) AppleWebKit/537.36 (KHTML, like Gecko) Chrome/96.0.4664.110 Safari/537.36",WebKit,Chrome,96.0.4664.110,Windows,10.0,ac0f2dffeffaa78d35a552e03d03f0a8
18,1,"""",test_procedure,fixation,html-keyboard-response,109,242534,0.0-11.0-0.0-0.23,3SD15I2WEBVYX2RZ7BNPTJHHA9P63F,A3KF6O09H04SP7,3A4NIXBJ7F0KPTZ9QZ382L483GXLM7,JI4A4,JI4A4,3A4NIXBJ7F0KPTZ9QZ382L483GXLM7,3A4NIXBJ7F0KPTZ9QZ382L483GXLM7,338054,338054,1,0.03,"""",null,null,"<div class = fixationbox><div class = fixation>+</div></div>","""","""","""","""","""","""","""","""","2021-12-31 03:39:36",67.0.250.37,"Mozilla/5.0 (Windows NT 10.0; Win64; x64) AppleWebKit/537.36 (KHTML, like Gecko) Chrome/96.0.4664.110 Safari/537.36",WebKit,Chrome,96.0.4664.110,Windows,10.0,ac0f2dffeffaa78d35a552e03d03f0a8
18,1,"""",test_procedure,stim_test,canvas-button-response,110,244127,0.0-11.0-0.0-1.23,3SD15I2WEBVYX2RZ7BNPTJHHA9P63F,A3KF6O09H04SP7,3A4NIXBJ7F0KPTZ9QZ382L483GXLM7,JI4A4,JI4A4,3A4NIXBJ7F0KPTZ9QZ382L483GXLM7,3A4NIXBJ7F0KPTZ9QZ382L483GXLM7,338054,338054,1,0.03,"""",1490.699999988079,1,stim1,1,Clockwise,true,"""",0.01,60,"""","""","2021-12-31 03:39:36",67.0.250.37,"Mozilla/5.0 (Windows NT 10.0; Win64; x64) AppleWebKit/537.36 (KHTML, like Gecko) Chrome/96.0.4664.110 Safari/537.36",WebKit,Chrome,96.0.4664.110,Windows,10.0,ac0f2dffeffaa78d35a552e03d03f0a8
18,1,"""",test_procedure,confidence_rating,html-slider-response,111,246790,0.0-11.0-0.0-2.23,3SD15I2WEBVYX2RZ7BNPTJHHA9P63F,A3KF6O09H04SP7,3A4NIXBJ7F0KPTZ9QZ382L483GXLM7,JI4A4,JI4A4,3A4NIXBJ7F0KPTZ9QZ382L483GXLM7,3A4NIXBJ7F0KPTZ9QZ382L483GXLM7,338054,338054,1,0.03,"""",2657.699999988079,27,"<div id=""message-div""><p>How confident are you that your clockwise/counter-clockwise response just now was accurate? Please rate your confidence on the slider bar below.</p></div>","""","""","""",50,"""","""","""",27,"2021-12-31 03:39:36",67.0.250.37,"Mozilla/5.0 (Windows NT 10.0; Win64; x64) AppleWebKit/537.36 (KHTML, like Gecko) Chrome/96.0.4664.110 Safari/537.36",WebKit,Chrome,96.0.4664.110,Windows,10.0,ac0f2dffeffaa78d35a552e03d03f0a8
18,1,"""",test_procedure,rest_block,html-button-response,112,252196,0.0-11.0-0.0-3.23-0.23,3SD15I2WEBVYX2RZ7BNPTJHHA9P63F,A3KF6O09H04SP7,3A4NIXBJ7F0KPTZ9QZ382L483GXLM7,JI4A4,JI4A4,3A4NIXBJ7F0KPTZ9QZ382L483GXLM7,3A4NIXBJ7F0KPTZ9QZ382L483GXLM7,338054,338054,1,0.03,"""",5403.400000035763,0,"[""<p>You responded correctly on 62.50% of the trials in the previous section.</p><p>Time to take a break!</p><p>Once you're ready, press the \"Continue\" button to continue.</p>""]","""","""","""","""","""","""","""","""","2021-12-31 03:39:36",67.0.250.37,"Mozilla/5.0 (Windows NT 10.0; Win64; x64) AppleWebKit/537.36 (KHTML, like Gecko) Chrome/96.0.4664.110 Safari/537.36",WebKit,Chrome,96.0.4664.110,Windows,10.0,ac0f2dffeffaa78d35a552e03d03f0a8
18,1,"""",test_procedure,fixation,html-keyboard-response,113,252703,0.0-11.0-0.1-0.24,3SD15I2WEBVYX2RZ7BNPTJHHA9P63F,A3KF6O09H04SP7,3A4NIXBJ7F0KPTZ9QZ382L483GXLM7,JI4A4,JI4A4,3A4NIXBJ7F0KPTZ9QZ382L483GXLM7,3A4NIXBJ7F0KPTZ9QZ382L483GXLM7,338054,338054,1,0.03,"""",null,null,"<div class = fixationbox><div class = fixation>+</div></div>","""","""","""","""","""","""","""","""","2021-12-31 03:39:36",67.0.250.37,"Mozilla/5.0 (Windows NT 10.0; Win64; x64) AppleWebKit/537.36 (KHTML, like Gecko) Chrome/96.0.4664.110 Safari/537.36",WebKit,Chrome,96.0.4664.110,Windows,10.0,ac0f2dffeffaa78d35a552e03d03f0a8
18,1,"""",test_procedure,stim_test,canvas-button-response,114,254123,0.0-11.0-0.1-1.24,3SD15I2WEBVYX2RZ7BNPTJHHA9P63F,A3KF6O09H04SP7,3A4NIXBJ7F0KPTZ9QZ382L483GXLM7,JI4A4,JI4A4,3A4NIXBJ7F0KPTZ9QZ382L483GXLM7,3A4NIXBJ7F0KPTZ9QZ382L483GXLM7,338054,338054,1,0.03,"""",1346.7999999523163,1,stim2,0,Counter-clockwise,false,"""",0.01,120,"""","""","2021-12-31 03:39:36",67.0.250.37,"Mozilla/5.0 (Windows NT 10.0; Win64; x64) AppleWebKit/537.36 (KHTML, like Gecko) Chrome/96.0.4664.110 Safari/537.36",WebKit,Chrome,96.0.4664.110,Windows,10.0,ac0f2dffeffaa78d35a552e03d03f0a8
18,1,"""",test_procedure,confidence_rating,html-slider-response,115,256491,0.0-11.0-0.1-2.24,3SD15I2WEBVYX2RZ7BNPTJHHA9P63F,A3KF6O09H04SP7,3A4NIXBJ7F0KPTZ9QZ382L483GXLM7,JI4A4,JI4A4,3A4NIXBJ7F0KPTZ9QZ382L483GXLM7,3A4NIXBJ7F0KPTZ9QZ382L483GXLM7,338054,338054,1,0.03,"""",2366.099999964237,16,"<div id=""message-div""><p>How confident are you that your clockwise/counter-clockwise response just now was accurate? Please rate your confidence on the slider bar below.</p></div>","""","""","""",50,"""","""","""",16,"2021-12-31 03:39:36",67.0.250.37,"Mozilla/5.0 (Windows NT 10.0; Win64; x64) AppleWebKit/537.36 (KHTML, like Gecko) Chrome/96.0.4664.110 Safari/537.36",WebKit,Chrome,96.0.4664.110,Windows,10.0,ac0f2dffeffaa78d35a552e03d03f0a8
18,1,"""",test_procedure,fixation,html-keyboard-response,116,256992,0.0-11.0-0.1-0.25,3SD15I2WEBVYX2RZ7BNPTJHHA9P63F,A3KF6O09H04SP7,3A4NIXBJ7F0KPTZ9QZ382L483GXLM7,JI4A4,JI4A4,3A4NIXBJ7F0KPTZ9QZ382L483GXLM7,3A4NIXBJ7F0KPTZ9QZ382L483GXLM7,338054,338054,1,0.03,"""",null,null,"<div class = fixationbox><div class = fixation>+</div></div>","""","""","""","""","""","""","""","""","2021-12-31 03:39:36",67.0.250.37,"Mozilla/5.0 (Windows NT 10.0; Win64; x64) AppleWebKit/537.36 (KHTML, like Gecko) Chrome/96.0.4664.110 Safari/537.36",WebKit,Chrome,96.0.4664.110,Windows,10.0,ac0f2dffeffaa78d35a552e03d03f0a8
18,1,"""",test_procedure,stim_test,canvas-button-response,117,259512,0.0-11.0-0.1-1.25,3SD15I2WEBVYX2RZ7BNPTJHHA9P63F,A3KF6O09H04SP7,3A4NIXBJ7F0KPTZ9QZ382L483GXLM7,JI4A4,JI4A4,3A4NIXBJ7F0KPTZ9QZ382L483GXLM7,3A4NIXBJ7F0KPTZ9QZ382L483GXLM7,338054,338054,1,0.03,"""",2446.5,0,catchStim4,0,Counter-clockwise,true,"""",0.01,120,0.001,"""","2021-12-31 03:39:36",67.0.250.37,"Mozilla/5.0 (Windows NT 10.0; Win64; x64) AppleWebKit/537.36 (KHTML, like Gecko) Chrome/96.0.4664.110 Safari/537.36",WebKit,Chrome,96.0.4664.110,Windows,10.0,ac0f2dffeffaa78d35a552e03d03f0a8
18,1,"""",test_procedure,confidence_rating,html-slider-response,118,261632,0.0-11.0-0.1-2.25,3SD15I2WEBVYX2RZ7BNPTJHHA9P63F,A3KF6O09H04SP7,3A4NIXBJ7F0KPTZ9QZ382L483GXLM7,JI4A4,JI4A4,3A4NIXBJ7F0KPTZ9QZ382L483GXLM7,3A4NIXBJ7F0KPTZ9QZ382L483GXLM7,338054,338054,1,0.03,"""",2115.100000023842,0,"<div id=""message-div""><p>How confident are you that your clockwise/counter-clockwise response just now was accurate? Please rate your confidence on the slider bar below.</p></div>","""","""","""",50,"""","""","""",0,"2021-12-31 03:39:36",67.0.250.37,"Mozilla/5.0 (Windows NT 10.0; Win64; x64) AppleWebKit/537.36 (KHTML, like Gecko) Chrome/96.0.4664.110 Safari/537.36",WebKit,Chrome,96.0.4664.110,Windows,10.0,ac0f2dffeffaa78d35a552e03d03f0a8
18,1,"""",test_procedure,fixation,html-keyboard-response,119,262136,0.0-11.0-0.1-0.26,3SD15I2WEBVYX2RZ7BNPTJHHA9P63F,A3KF6O09H04SP7,3A4NIXBJ7F0KPTZ9QZ382L483GXLM7,JI4A4,JI4A4,3A4NIXBJ7F0KPTZ9QZ382L483GXLM7,3A4NIXBJ7F0KPTZ9QZ382L483GXLM7,338054,338054,1,0.03,"""",null,null,"<div class = fixationbox><div class = fixation>+</div></div>","""","""","""","""","""","""","""","""","2021-12-31 03:39:36",67.0.250.37,"Mozilla/5.0 (Windows NT 10.0; Win64; x64) AppleWebKit/537.36 (KHTML, like Gecko) Chrome/96.0.4664.110 Safari/537.36",WebKit,Chrome,96.0.4664.110,Windows,10.0,ac0f2dffeffaa78d35a552e03d03f0a8
18,1,"""",test_procedure,stim_test,canvas-button-response,120,263560,0.0-11.0-0.1-1.26,3SD15I2WEBVYX2RZ7BNPTJHHA9P63F,A3KF6O09H04SP7,3A4NIXBJ7F0KPTZ9QZ382L483GXLM7,JI4A4,JI4A4,3A4NIXBJ7F0KPTZ9QZ382L483GXLM7,3A4NIXBJ7F0KPTZ9QZ382L483GXLM7,338054,338054,1,0.03,"""",1354.9000000357628,0,catchStim6,0,Counter-clockwise,true,"""",0.3,120,0.6,"""","2021-12-31 03:39:36",67.0.250.37,"Mozilla/5.0 (Windows NT 10.0; Win64; x64) AppleWebKit/537.36 (KHTML, like Gecko) Chrome/96.0.4664.110 Safari/537.36",WebKit,Chrome,96.0.4664.110,Windows,10.0,ac0f2dffeffaa78d35a552e03d03f0a8
18,1,"""",test_procedure,confidence_rating,html-slider-response,121,265357,0.0-11.0-0.1-2.26,3SD15I2WEBVYX2RZ7BNPTJHHA9P63F,A3KF6O09H04SP7,3A4NIXBJ7F0KPTZ9QZ382L483GXLM7,JI4A4,JI4A4,3A4NIXBJ7F0KPTZ9QZ382L483GXLM7,3A4NIXBJ7F0KPTZ9QZ382L483GXLM7,338054,338054,1,0.03,"""",1795.800000011921,95,"<div id=""message-div""><p>How confident are you that your clockwise/counter-clockwise response just now was accurate? Please rate your confidence on the slider bar below.</p></div>","""","""","""",50,"""","""","""",95,"2021-12-31 03:39:36",67.0.250.37,"Mozilla/5.0 (Windows NT 10.0; Win64; x64) AppleWebKit/537.36 (KHTML, like Gecko) Chrome/96.0.4664.110 Safari/537.36",WebKit,Chrome,96.0.4664.110,Windows,10.0,ac0f2dffeffaa78d35a552e03d03f0a8
18,1,"""",test_procedure,fixation,html-keyboard-response,122,265859,0.0-11.0-0.1-0.27,3SD15I2WEBVYX2RZ7BNPTJHHA9P63F,A3KF6O09H04SP7,3A4NIXBJ7F0KPTZ9QZ382L483GXLM7,JI4A4,JI4A4,3A4NIXBJ7F0KPTZ9QZ382L483GXLM7,3A4NIXBJ7F0KPTZ9QZ382L483GXLM7,338054,338054,1,0.03,"""",null,null,"<div class = fixationbox><div class = fixation>+</div></div>","""","""","""","""","""","""","""","""","2021-12-31 03:39:36",67.0.250.37,"Mozilla/5.0 (Windows NT 10.0; Win64; x64) AppleWebKit/537.36 (KHTML, like Gecko) Chrome/96.0.4664.110 Safari/537.36",WebKit,Chrome,96.0.4664.110,Windows,10.0,ac0f2dffeffaa78d35a552e03d03f0a8
18,1,"""",test_procedure,stim_test,canvas-button-response,123,267325,0.0-11.0-0.1-1.27,3SD15I2WEBVYX2RZ7BNPTJHHA9P63F,A3KF6O09H04SP7,3A4NIXBJ7F0KPTZ9QZ382L483GXLM7,JI4A4,JI4A4,3A4NIXBJ7F0KPTZ9QZ382L483GXLM7,3A4NIXBJ7F0KPTZ9QZ382L483GXLM7,338054,338054,1,0.03,"""",1368.3999999761581,0,stim1,1,Clockwise,false,"""",0.01,60,"""","""","2021-12-31 03:39:36",67.0.250.37,"Mozilla/5.0 (Windows NT 10.0; Win64; x64) AppleWebKit/537.36 (KHTML, like Gecko) Chrome/96.0.4664.110 Safari/537.36",WebKit,Chrome,96.0.4664.110,Windows,10.0,ac0f2dffeffaa78d35a552e03d03f0a8
18,1,"""",test_procedure,confidence_rating,html-slider-response,124,269124,0.0-11.0-0.1-2.27,3SD15I2WEBVYX2RZ7BNPTJHHA9P63F,A3KF6O09H04SP7,3A4NIXBJ7F0KPTZ9QZ382L483GXLM7,JI4A4,JI4A4,3A4NIXBJ7F0KPTZ9QZ382L483GXLM7,3A4NIXBJ7F0KPTZ9QZ382L483GXLM7,338054,338054,1,0.03,"""",1797.4000000357628,22,"<div id=""message-div""><p>How confident are you that your clockwise/counter-clockwise response just now was accurate? Please rate your confidence on the slider bar below.</p></div>","""","""","""",50,"""","""","""",22,"2021-12-31 03:39:36",67.0.250.37,"Mozilla/5.0 (Windows NT 10.0; Win64; x64) AppleWebKit/537.36 (KHTML, like Gecko) Chrome/96.0.4664.110 Safari/537.36",WebKit,Chrome,96.0.4664.110,Windows,10.0,ac0f2dffeffaa78d35a552e03d03f0a8
18,1,"""",test_procedure,fixation,html-keyboard-response,125,269627,0.0-11.0-0.1-0.28,3SD15I2WEBVYX2RZ7BNPTJHHA9P63F,A3KF6O09H04SP7,3A4NIXBJ7F0KPTZ9QZ382L483GXLM7,JI4A4,JI4A4,3A4NIXBJ7F0KPTZ9QZ382L483GXLM7,3A4NIXBJ7F0KPTZ9QZ382L483GXLM7,338054,338054,1,0.03,"""",null,null,"<div class = fixationbox><div class = fixation>+</div></div>","""","""","""","""","""","""","""","""","2021-12-31 03:39:36",67.0.250.37,"Mozilla/5.0 (Windows NT 10.0; Win64; x64) AppleWebKit/537.36 (KHTML, like Gecko) Chrome/96.0.4664.110 Safari/537.36",WebKit,Chrome,96.0.4664.110,Windows,10.0,ac0f2dffeffaa78d35a552e03d03f0a8
18,1,"""",test_procedure,stim_test,canvas-button-response,126,271099,0.0-11.0-0.1-1.28,3SD15I2WEBVYX2RZ7BNPTJHHA9P63F,A3KF6O09H04SP7,3A4NIXBJ7F0KPTZ9QZ382L483GXLM7,JI4A4,JI4A4,3A4NIXBJ7F0KPTZ9QZ382L483GXLM7,3A4NIXBJ7F0KPTZ9QZ382L483GXLM7,338054,338054,1,0.03,"""",1406.7000000476837,1,stim1,1,Clockwise,true,"""",0.01,60,"""","""","2021-12-31 03:39:36",67.0.250.37,"Mozilla/5.0 (Windows NT 10.0; Win64; x64) AppleWebKit/537.36 (KHTML, like Gecko) Chrome/96.0.4664.110 Safari/537.36",WebKit,Chrome,96.0.4664.110,Windows,10.0,ac0f2dffeffaa78d35a552e03d03f0a8
18,1,"""",test_procedure,confidence_rating,html-slider-response,127,273602,0.0-11.0-0.1-2.28,3SD15I2WEBVYX2RZ7BNPTJHHA9P63F,A3KF6O09H04SP7,3A4NIXBJ7F0KPTZ9QZ382L483GXLM7,JI4A4,JI4A4,3A4NIXBJ7F0KPTZ9QZ382L483GXLM7,3A4NIXBJ7F0KPTZ9QZ382L483GXLM7,338054,338054,1,0.03,"""",2501.5,13,"<div id=""message-div""><p>How confident are you that your clockwise/counter-clockwise response just now was accurate? Please rate your confidence on the slider bar below.</p></div>","""","""","""",50,"""","""","""",13,"2021-12-31 03:39:36",67.0.250.37,"Mozilla/5.0 (Windows NT 10.0; Win64; x64) AppleWebKit/537.36 (KHTML, like Gecko) Chrome/96.0.4664.110 Safari/537.36",WebKit,Chrome,96.0.4664.110,Windows,10.0,ac0f2dffeffaa78d35a552e03d03f0a8
18,1,"""",test_procedure,fixation,html-keyboard-response,128,274110,0.0-11.0-0.1-0.29,3SD15I2WEBVYX2RZ7BNPTJHHA9P63F,A3KF6O09H04SP7,3A4NIXBJ7F0KPTZ9QZ382L483GXLM7,JI4A4,JI4A4,3A4NIXBJ7F0KPTZ9QZ382L483GXLM7,3A4NIXBJ7F0KPTZ9QZ382L483GXLM7,338054,338054,1,0.03,"""",null,null,"<div class = fixationbox><div class = fixation>+</div></div>","""","""","""","""","""","""","""","""","2021-12-31 03:39:36",67.0.250.37,"Mozilla/5.0 (Windows NT 10.0; Win64; x64) AppleWebKit/537.36 (KHTML, like Gecko) Chrome/96.0.4664.110 Safari/537.36",WebKit,Chrome,96.0.4664.110,Windows,10.0,ac0f2dffeffaa78d35a552e03d03f0a8
18,1,"""",test_procedure,stim_test,canvas-button-response,129,276202,0.0-11.0-0.1-1.29,3SD15I2WEBVYX2RZ7BNPTJHHA9P63F,A3KF6O09H04SP7,3A4NIXBJ7F0KPTZ9QZ382L483GXLM7,JI4A4,JI4A4,3A4NIXBJ7F0KPTZ9QZ382L483GXLM7,3A4NIXBJ7F0KPTZ9QZ382L483GXLM7,338054,338054,1,0.03,"""",1995.199999988079,0,stim3,1,Clockwise,false,"""",0.3,60,"""","""","2021-12-31 03:39:36",67.0.250.37,"Mozilla/5.0 (Windows NT 10.0; Win64; x64) AppleWebKit/537.36 (KHTML, like Gecko) Chrome/96.0.4664.110 Safari/537.36",WebKit,Chrome,96.0.4664.110,Windows,10.0,ac0f2dffeffaa78d35a552e03d03f0a8
18,1,"""",test_procedure,confidence_rating,html-slider-response,130,278152,0.0-11.0-0.1-2.29,3SD15I2WEBVYX2RZ7BNPTJHHA9P63F,A3KF6O09H04SP7,3A4NIXBJ7F0KPTZ9QZ382L483GXLM7,JI4A4,JI4A4,3A4NIXBJ7F0KPTZ9QZ382L483GXLM7,3A4NIXBJ7F0KPTZ9QZ382L483GXLM7,338054,338054,1,0.03,"""",1946.8999999761581,1,"<div id=""message-div""><p>How confident are you that your clockwise/counter-clockwise response just now was accurate? Please rate your confidence on the slider bar below.</p></div>","""","""","""",50,"""","""","""",1,"2021-12-31 03:39:36",67.0.250.37,"Mozilla/5.0 (Windows NT 10.0; Win64; x64) AppleWebKit/537.36 (KHTML, like Gecko) Chrome/96.0.4664.110 Safari/537.36",WebKit,Chrome,96.0.4664.110,Windows,10.0,ac0f2dffeffaa78d35a552e03d03f0a8
18,1,"""",test_procedure,fixation,html-keyboard-response,131,278654,0.0-11.0-0.1-0.30,3SD15I2WEBVYX2RZ7BNPTJHHA9P63F,A3KF6O09H04SP7,3A4NIXBJ7F0KPTZ9QZ382L483GXLM7,JI4A4,JI4A4,3A4NIXBJ7F0KPTZ9QZ382L483GXLM7,3A4NIXBJ7F0KPTZ9QZ382L483GXLM7,338054,338054,1,0.03,"""",null,null,"<div class = fixationbox><div class = fixation>+</div></div>","""","""","""","""","""","""","""","""","2021-12-31 03:39:36",67.0.250.37,"Mozilla/5.0 (Windows NT 10.0; Win64; x64) AppleWebKit/537.36 (KHTML, like Gecko) Chrome/96.0.4664.110 Safari/537.36",WebKit,Chrome,96.0.4664.110,Windows,10.0,ac0f2dffeffaa78d35a552e03d03f0a8
18,1,"""",test_procedure,stim_test,canvas-button-response,132,281079,0.0-11.0-0.1-1.30,3SD15I2WEBVYX2RZ7BNPTJHHA9P63F,A3KF6O09H04SP7,3A4NIXBJ7F0KPTZ9QZ382L483GXLM7,JI4A4,JI4A4,3A4NIXBJ7F0KPTZ9QZ382L483GXLM7,3A4NIXBJ7F0KPTZ9QZ382L483GXLM7,338054,338054,1,0.03,"""",2346.699999988079,0,stim3,1,Clockwise,false,"""",0.3,60,"""","""","2021-12-31 03:39:36",67.0.250.37,"Mozilla/5.0 (Windows NT 10.0; Win64; x64) AppleWebKit/537.36 (KHTML, like Gecko) Chrome/96.0.4664.110 Safari/537.36",WebKit,Chrome,96.0.4664.110,Windows,10.0,ac0f2dffeffaa78d35a552e03d03f0a8
18,1,"""",test_procedure,confidence_rating,html-slider-response,133,283039,0.0-11.0-0.1-2.30,3SD15I2WEBVYX2RZ7BNPTJHHA9P63F,A3KF6O09H04SP7,3A4NIXBJ7F0KPTZ9QZ382L483GXLM7,JI4A4,JI4A4,3A4NIXBJ7F0KPTZ9QZ382L483GXLM7,3A4NIXBJ7F0KPTZ9QZ382L483GXLM7,338054,338054,1,0.03,"""",1954.9000000357628,7,"<div id=""message-div""><p>How confident are you that your clockwise/counter-clockwise response just now was accurate? Please rate your confidence on the slider bar below.</p></div>","""","""","""",50,"""","""","""",7,"2021-12-31 03:39:36",67.0.250.37,"Mozilla/5.0 (Windows NT 10.0; Win64; x64) AppleWebKit/537.36 (KHTML, like Gecko) Chrome/96.0.4664.110 Safari/537.36",WebKit,Chrome,96.0.4664.110,Windows,10.0,ac0f2dffeffaa78d35a552e03d03f0a8
18,1,"""",test_procedure,fixation,html-keyboard-response,134,283543,0.0-11.0-0.1-0.31,3SD15I2WEBVYX2RZ7BNPTJHHA9P63F,A3KF6O09H04SP7,3A4NIXBJ7F0KPTZ9QZ382L483GXLM7,JI4A4,JI4A4,3A4NIXBJ7F0KPTZ9QZ382L483GXLM7,3A4NIXBJ7F0KPTZ9QZ382L483GXLM7,338054,338054,1,0.03,"""",null,null,"<div class = fixationbox><div class = fixation>+</div></div>","""","""","""","""","""","""","""","""","2021-12-31 03:39:36",67.0.250.37,"Mozilla/5.0 (Windows NT 10.0; Win64; x64) AppleWebKit/537.36 (KHTML, like Gecko) Chrome/96.0.4664.110 Safari/537.36",WebKit,Chrome,96.0.4664.110,Windows,10.0,ac0f2dffeffaa78d35a552e03d03f0a8
18,1,"""",test_procedure,stim_test,canvas-button-response,135,284799,0.0-11.0-0.1-1.31,3SD15I2WEBVYX2RZ7BNPTJHHA9P63F,A3KF6O09H04SP7,3A4NIXBJ7F0KPTZ9QZ382L483GXLM7,JI4A4,JI4A4,3A4NIXBJ7F0KPTZ9QZ382L483GXLM7,3A4NIXBJ7F0KPTZ9QZ382L483GXLM7,338054,338054,1,0.03,"""",1175,1,catchStim7,1,Clockwise,true,"""",0.3,60,0.001,"""","2021-12-31 03:39:36",67.0.250.37,"Mozilla/5.0 (Windows NT 10.0; Win64; x64) AppleWebKit/537.36 (KHTML, like Gecko) Chrome/96.0.4664.110 Safari/537.36",WebKit,Chrome,96.0.4664.110,Windows,10.0,ac0f2dffeffaa78d35a552e03d03f0a8
18,1,"""",test_procedure,confidence_rating,html-slider-response,136,286653,0.0-11.0-0.1-2.31,3SD15I2WEBVYX2RZ7BNPTJHHA9P63F,A3KF6O09H04SP7,3A4NIXBJ7F0KPTZ9QZ382L483GXLM7,JI4A4,JI4A4,3A4NIXBJ7F0KPTZ9QZ382L483GXLM7,3A4NIXBJ7F0KPTZ9QZ382L483GXLM7,338054,338054,1,0.03,"""",1851.8999999761581,19,"<div id=""message-div""><p>How confident are you that your clockwise/counter-clockwise response just now was accurate? Please rate your confidence on the slider bar below.</p></div>","""","""","""",50,"""","""","""",19,"2021-12-31 03:39:36",67.0.250.37,"Mozilla/5.0 (Windows NT 10.0; Win64; x64) AppleWebKit/537.36 (KHTML, like Gecko) Chrome/96.0.4664.110 Safari/537.36",WebKit,Chrome,96.0.4664.110,Windows,10.0,ac0f2dffeffaa78d35a552e03d03f0a8
18,1,"""",test_procedure,fixation,html-keyboard-response,137,287156,0.0-11.0-0.1-0.32,3SD15I2WEBVYX2RZ7BNPTJHHA9P63F,A3KF6O09H04SP7,3A4NIXBJ7F0KPTZ9QZ382L483GXLM7,JI4A4,JI4A4,3A4NIXBJ7F0KPTZ9QZ382L483GXLM7,3A4NIXBJ7F0KPTZ9QZ382L483GXLM7,338054,338054,1,0.03,"""",null,null,"<div class = fixationbox><div class = fixation>+</div></div>","""","""","""","""","""","""","""","""","2021-12-31 03:39:36",67.0.250.37,"Mozilla/5.0 (Windows NT 10.0; Win64; x64) AppleWebKit/537.36 (KHTML, like Gecko) Chrome/96.0.4664.110 Safari/537.36",WebKit,Chrome,96.0.4664.110,Windows,10.0,ac0f2dffeffaa78d35a552e03d03f0a8
18,1,"""",test_procedure,stim_test,canvas-button-response,138,288660,0.0-11.0-0.1-1.32,3SD15I2WEBVYX2RZ7BNPTJHHA9P63F,A3KF6O09H04SP7,3A4NIXBJ7F0KPTZ9QZ382L483GXLM7,JI4A4,JI4A4,3A4NIXBJ7F0KPTZ9QZ382L483GXLM7,3A4NIXBJ7F0KPTZ9QZ382L483GXLM7,338054,338054,1,0.03,"""",1394.9000000357628,1,stim4,0,Counter-clockwise,false,"""",0.3,120,"""","""","2021-12-31 03:39:36",67.0.250.37,"Mozilla/5.0 (Windows NT 10.0; Win64; x64) AppleWebKit/537.36 (KHTML, like Gecko) Chrome/96.0.4664.110 Safari/537.36",WebKit,Chrome,96.0.4664.110,Windows,10.0,ac0f2dffeffaa78d35a552e03d03f0a8
18,1,"""",test_procedure,confidence_rating,html-slider-response,139,290507,0.0-11.0-0.1-2.32,3SD15I2WEBVYX2RZ7BNPTJHHA9P63F,A3KF6O09H04SP7,3A4NIXBJ7F0KPTZ9QZ382L483GXLM7,JI4A4,JI4A4,3A4NIXBJ7F0KPTZ9QZ382L483GXLM7,3A4NIXBJ7F0KPTZ9QZ382L483GXLM7,338054,338054,1,0.03,"""",1839.6000000238419,10,"<div id=""message-div""><p>How confident are you that your clockwise/counter-clockwise response just now was accurate? Please rate your confidence on the slider bar below.</p></div>","""","""","""",50,"""","""","""",10,"2021-12-31 03:39:36",67.0.250.37,"Mozilla/5.0 (Windows NT 10.0; Win64; x64) AppleWebKit/537.36 (KHTML, like Gecko) Chrome/96.0.4664.110 Safari/537.36",WebKit,Chrome,96.0.4664.110,Windows,10.0,ac0f2dffeffaa78d35a552e03d03f0a8
18,1,"""",test_procedure,fixation,html-keyboard-response,140,291008,0.0-11.0-0.1-0.33,3SD15I2WEBVYX2RZ7BNPTJHHA9P63F,A3KF6O09H04SP7,3A4NIXBJ7F0KPTZ9QZ382L483GXLM7,JI4A4,JI4A4,3A4NIXBJ7F0KPTZ9QZ382L483GXLM7,3A4NIXBJ7F0KPTZ9QZ382L483GXLM7,338054,338054,1,0.03,"""",null,null,"<div class = fixationbox><div class = fixation>+</div></div>","""","""","""","""","""","""","""","""","2021-12-31 03:39:36",67.0.250.37,"Mozilla/5.0 (Windows NT 10.0; Win64; x64) AppleWebKit/537.36 (KHTML, like Gecko) Chrome/96.0.4664.110 Safari/537.36",WebKit,Chrome,96.0.4664.110,Windows,10.0,ac0f2dffeffaa78d35a552e03d03f0a8
18,1,"""",test_procedure,stim_test,canvas-button-response,141,292955,0.0-11.0-0.1-1.33,3SD15I2WEBVYX2RZ7BNPTJHHA9P63F,A3KF6O09H04SP7,3A4NIXBJ7F0KPTZ9QZ382L483GXLM7,JI4A4,JI4A4,3A4NIXBJ7F0KPTZ9QZ382L483GXLM7,3A4NIXBJ7F0KPTZ9QZ382L483GXLM7,338054,338054,1,0.03,"""",1855.1000000238419,1,catchStim3,1,Clockwise,true,"""",0.01,60,0.001,"""","2021-12-31 03:39:36",67.0.250.37,"Mozilla/5.0 (Windows NT 10.0; Win64; x64) AppleWebKit/537.36 (KHTML, like Gecko) Chrome/96.0.4664.110 Safari/537.36",WebKit,Chrome,96.0.4664.110,Windows,10.0,ac0f2dffeffaa78d35a552e03d03f0a8
18,1,"""",test_procedure,confidence_rating,html-slider-response,142,294474,0.0-11.0-0.1-2.33,3SD15I2WEBVYX2RZ7BNPTJHHA9P63F,A3KF6O09H04SP7,3A4NIXBJ7F0KPTZ9QZ382L483GXLM7,JI4A4,JI4A4,3A4NIXBJ7F0KPTZ9QZ382L483GXLM7,3A4NIXBJ7F0KPTZ9QZ382L483GXLM7,338054,338054,1,0.03,"""",1517.0999999642372,5,"<div id=""message-div""><p>How confident are you that your clockwise/counter-clockwise response just now was accurate? Please rate your confidence on the slider bar below.</p></div>","""","""","""",50,"""","""","""",5,"2021-12-31 03:39:36",67.0.250.37,"Mozilla/5.0 (Windows NT 10.0; Win64; x64) AppleWebKit/537.36 (KHTML, like Gecko) Chrome/96.0.4664.110 Safari/537.36",WebKit,Chrome,96.0.4664.110,Windows,10.0,ac0f2dffeffaa78d35a552e03d03f0a8
18,1,"""",test_procedure,fixation,html-keyboard-response,143,294980,0.0-11.0-0.1-0.34,3SD15I2WEBVYX2RZ7BNPTJHHA9P63F,A3KF6O09H04SP7,3A4NIXBJ7F0KPTZ9QZ382L483GXLM7,JI4A4,JI4A4,3A4NIXBJ7F0KPTZ9QZ382L483GXLM7,3A4NIXBJ7F0KPTZ9QZ382L483GXLM7,338054,338054,1,0.03,"""",null,null,"<div class = fixationbox><div class = fixation>+</div></div>","""","""","""","""","""","""","""","""","2021-12-31 03:39:36",67.0.250.37,"Mozilla/5.0 (Windows NT 10.0; Win64; x64) AppleWebKit/537.36 (KHTML, like Gecko) Chrome/96.0.4664.110 Safari/537.36",WebKit,Chrome,96.0.4664.110,Windows,10.0,ac0f2dffeffaa78d35a552e03d03f0a8
18,1,"""",test_procedure,stim_test,canvas-button-response,144,296305,0.0-11.0-0.1-1.34,3SD15I2WEBVYX2RZ7BNPTJHHA9P63F,A3KF6O09H04SP7,3A4NIXBJ7F0KPTZ9QZ382L483GXLM7,JI4A4,JI4A4,3A4NIXBJ7F0KPTZ9QZ382L483GXLM7,3A4NIXBJ7F0KPTZ9QZ382L483GXLM7,338054,338054,1,0.03,"""",1226,0,stim2,0,Counter-clockwise,true,"""",0.01,120,"""","""","2021-12-31 03:39:36",67.0.250.37,"Mozilla/5.0 (Windows NT 10.0; Win64; x64) AppleWebKit/537.36 (KHTML, like Gecko) Chrome/96.0.4664.110 Safari/537.36",WebKit,Chrome,96.0.4664.110,Windows,10.0,ac0f2dffeffaa78d35a552e03d03f0a8
18,1,"""",test_procedure,confidence_rating,html-slider-response,145,298481,0.0-11.0-0.1-2.34,3SD15I2WEBVYX2RZ7BNPTJHHA9P63F,A3KF6O09H04SP7,3A4NIXBJ7F0KPTZ9QZ382L483GXLM7,JI4A4,JI4A4,3A4NIXBJ7F0KPTZ9QZ382L483GXLM7,3A4NIXBJ7F0KPTZ9QZ382L483GXLM7,338054,338054,1,0.03,"""",2174.199999988079,7,"<div id=""message-div""><p>How confident are you that your clockwise/counter-clockwise response just now was accurate? Please rate your confidence on the slider bar below.</p></div>","""","""","""",50,"""","""","""",7,"2021-12-31 03:39:36",67.0.250.37,"Mozilla/5.0 (Windows NT 10.0; Win64; x64) AppleWebKit/537.36 (KHTML, like Gecko) Chrome/96.0.4664.110 Safari/537.36",WebKit,Chrome,96.0.4664.110,Windows,10.0,ac0f2dffeffaa78d35a552e03d03f0a8
18,1,"""",test_procedure,fixation,html-keyboard-response,146,298986,0.0-11.0-0.1-0.35,3SD15I2WEBVYX2RZ7BNPTJHHA9P63F,A3KF6O09H04SP7,3A4NIXBJ7F0KPTZ9QZ382L483GXLM7,JI4A4,JI4A4,3A4NIXBJ7F0KPTZ9QZ382L483GXLM7,3A4NIXBJ7F0KPTZ9QZ382L483GXLM7,338054,338054,1,0.03,"""",null,null,"<div class = fixationbox><div class = fixation>+</div></div>","""","""","""","""","""","""","""","""","2021-12-31 03:39:36",67.0.250.37,"Mozilla/5.0 (Windows NT 10.0; Win64; x64) AppleWebKit/537.36 (KHTML, like Gecko) Chrome/96.0.4664.110 Safari/537.36",WebKit,Chrome,96.0.4664.110,Windows,10.0,ac0f2dffeffaa78d35a552e03d03f0a8
18,1,"""",test_procedure,stim_test,canvas-button-response,147,300175,0.0-11.0-0.1-1.35,3SD15I2WEBVYX2RZ7BNPTJHHA9P63F,A3KF6O09H04SP7,3A4NIXBJ7F0KPTZ9QZ382L483GXLM7,JI4A4,JI4A4,3A4NIXBJ7F0KPTZ9QZ382L483GXLM7,3A4NIXBJ7F0KPTZ9QZ382L483GXLM7,338054,338054,1,0.03,"""",1104.5,1,catchStim1,1,Clockwise,true,"""",0.01,60,0.6,"""","2021-12-31 03:39:36",67.0.250.37,"Mozilla/5.0 (Windows NT 10.0; Win64; x64) AppleWebKit/537.36 (KHTML, like Gecko) Chrome/96.0.4664.110 Safari/537.36",WebKit,Chrome,96.0.4664.110,Windows,10.0,ac0f2dffeffaa78d35a552e03d03f0a8
18,1,"""",test_procedure,confidence_rating,html-slider-response,148,302663,0.0-11.0-0.1-2.35,3SD15I2WEBVYX2RZ7BNPTJHHA9P63F,A3KF6O09H04SP7,3A4NIXBJ7F0KPTZ9QZ382L483GXLM7,JI4A4,JI4A4,3A4NIXBJ7F0KPTZ9QZ382L483GXLM7,3A4NIXBJ7F0KPTZ9QZ382L483GXLM7,338054,338054,1,0.03,"""",2482.400000035763,96,"<div id=""message-div""><p>How confident are you that your clockwise/counter-clockwise response just now was accurate? Please rate your confidence on the slider bar below.</p></div>","""","""","""",50,"""","""","""",96,"2021-12-31 03:39:36",67.0.250.37,"Mozilla/5.0 (Windows NT 10.0; Win64; x64) AppleWebKit/537.36 (KHTML, like Gecko) Chrome/96.0.4664.110 Safari/537.36",WebKit,Chrome,96.0.4664.110,Windows,10.0,ac0f2dffeffaa78d35a552e03d03f0a8
18,1,"""",test_procedure,fixation,html-keyboard-response,149,303166,0.0-11.0-0.1-0.36,3SD15I2WEBVYX2RZ7BNPTJHHA9P63F,A3KF6O09H04SP7,3A4NIXBJ7F0KPTZ9QZ382L483GXLM7,JI4A4,JI4A4,3A4NIXBJ7F0KPTZ9QZ382L483GXLM7,3A4NIXBJ7F0KPTZ9QZ382L483GXLM7,338054,338054,1,0.03,"""",null,null,"<div class = fixationbox><div class = fixation>+</div></div>","""","""","""","""","""","""","""","""","2021-12-31 03:39:36",67.0.250.37,"Mozilla/5.0 (Windows NT 10.0; Win64; x64) AppleWebKit/537.36 (KHTML, like Gecko) Chrome/96.0.4664.110 Safari/537.36",WebKit,Chrome,96.0.4664.110,Windows,10.0,ac0f2dffeffaa78d35a552e03d03f0a8
18,1,"""",test_procedure,stim_test,canvas-button-response,150,304422,0.0-11.0-0.1-1.36,3SD15I2WEBVYX2RZ7BNPTJHHA9P63F,A3KF6O09H04SP7,3A4NIXBJ7F0KPTZ9QZ382L483GXLM7,JI4A4,JI4A4,3A4NIXBJ7F0KPTZ9QZ382L483GXLM7,3A4NIXBJ7F0KPTZ9QZ382L483GXLM7,338054,338054,1,0.03,"""",1162.5,1,catchStim5,1,Clockwise,true,"""",0.3,60,0.6,"""","2021-12-31 03:39:36",67.0.250.37,"Mozilla/5.0 (Windows NT 10.0; Win64; x64) AppleWebKit/537.36 (KHTML, like Gecko) Chrome/96.0.4664.110 Safari/537.36",WebKit,Chrome,96.0.4664.110,Windows,10.0,ac0f2dffeffaa78d35a552e03d03f0a8
18,1,"""",test_procedure,confidence_rating,html-slider-response,151,306508,0.0-11.0-0.1-2.36,3SD15I2WEBVYX2RZ7BNPTJHHA9P63F,A3KF6O09H04SP7,3A4NIXBJ7F0KPTZ9QZ382L483GXLM7,JI4A4,JI4A4,3A4NIXBJ7F0KPTZ9QZ382L483GXLM7,3A4NIXBJ7F0KPTZ9QZ382L483GXLM7,338054,338054,1,0.03,"""",2085.199999988079,96,"<div id=""message-div""><p>How confident are you that your clockwise/counter-clockwise response just now was accurate? Please rate your confidence on the slider bar below.</p></div>","""","""","""",50,"""","""","""",96,"2021-12-31 03:39:36",67.0.250.37,"Mozilla/5.0 (Windows NT 10.0; Win64; x64) AppleWebKit/537.36 (KHTML, like Gecko) Chrome/96.0.4664.110 Safari/537.36",WebKit,Chrome,96.0.4664.110,Windows,10.0,ac0f2dffeffaa78d35a552e03d03f0a8
18,1,"""",test_procedure,fixation,html-keyboard-response,152,307014,0.0-11.0-0.1-0.37,3SD15I2WEBVYX2RZ7BNPTJHHA9P63F,A3KF6O09H04SP7,3A4NIXBJ7F0KPTZ9QZ382L483GXLM7,JI4A4,JI4A4,3A4NIXBJ7F0KPTZ9QZ382L483GXLM7,3A4NIXBJ7F0KPTZ9QZ382L483GXLM7,338054,338054,1,0.03,"""",null,null,"<div class = fixationbox><div class = fixation>+</div></div>","""","""","""","""","""","""","""","""","2021-12-31 03:39:36",67.0.250.37,"Mozilla/5.0 (Windows NT 10.0; Win64; x64) AppleWebKit/537.36 (KHTML, like Gecko) Chrome/96.0.4664.110 Safari/537.36",WebKit,Chrome,96.0.4664.110,Windows,10.0,ac0f2dffeffaa78d35a552e03d03f0a8
18,1,"""",test_procedure,stim_test,canvas-button-response,153,308748,0.0-11.0-0.1-1.37,3SD15I2WEBVYX2RZ7BNPTJHHA9P63F,A3KF6O09H04SP7,3A4NIXBJ7F0KPTZ9QZ382L483GXLM7,JI4A4,JI4A4,3A4NIXBJ7F0KPTZ9QZ382L483GXLM7,3A4NIXBJ7F0KPTZ9QZ382L483GXLM7,338054,338054,1,0.03,"""",1640.5999999642372,1,stim1,1,Clockwise,true,"""",0.01,60,"""","""","2021-12-31 03:39:36",67.0.250.37,"Mozilla/5.0 (Windows NT 10.0; Win64; x64) AppleWebKit/537.36 (KHTML, like Gecko) Chrome/96.0.4664.110 Safari/537.36",WebKit,Chrome,96.0.4664.110,Windows,10.0,ac0f2dffeffaa78d35a552e03d03f0a8
18,1,"""",test_procedure,confidence_rating,html-slider-response,154,311026,0.0-11.0-0.1-2.37,3SD15I2WEBVYX2RZ7BNPTJHHA9P63F,A3KF6O09H04SP7,3A4NIXBJ7F0KPTZ9QZ382L483GXLM7,JI4A4,JI4A4,3A4NIXBJ7F0KPTZ9QZ382L483GXLM7,3A4NIXBJ7F0KPTZ9QZ382L483GXLM7,338054,338054,1,0.03,"""",2275.699999988079,22,"<div id=""message-div""><p>How confident are you that your clockwise/counter-clockwise response just now was accurate? Please rate your confidence on the slider bar below.</p></div>","""","""","""",50,"""","""","""",22,"2021-12-31 03:39:36",67.0.250.37,"Mozilla/5.0 (Windows NT 10.0; Win64; x64) AppleWebKit/537.36 (KHTML, like Gecko) Chrome/96.0.4664.110 Safari/537.36",WebKit,Chrome,96.0.4664.110,Windows,10.0,ac0f2dffeffaa78d35a552e03d03f0a8
18,1,"""",test_procedure,fixation,html-keyboard-response,155,311528,0.0-11.0-0.1-0.38,3SD15I2WEBVYX2RZ7BNPTJHHA9P63F,A3KF6O09H04SP7,3A4NIXBJ7F0KPTZ9QZ382L483GXLM7,JI4A4,JI4A4,3A4NIXBJ7F0KPTZ9QZ382L483GXLM7,3A4NIXBJ7F0KPTZ9QZ382L483GXLM7,338054,338054,1,0.03,"""",null,null,"<div class = fixationbox><div class = fixation>+</div></div>","""","""","""","""","""","""","""","""","2021-12-31 03:39:36",67.0.250.37,"Mozilla/5.0 (Windows NT 10.0; Win64; x64) AppleWebKit/537.36 (KHTML, like Gecko) Chrome/96.0.4664.110 Safari/537.36",WebKit,Chrome,96.0.4664.110,Windows,10.0,ac0f2dffeffaa78d35a552e03d03f0a8
18,1,"""",test_procedure,stim_test,canvas-button-response,156,313010,0.0-11.0-0.1-1.38,3SD15I2WEBVYX2RZ7BNPTJHHA9P63F,A3KF6O09H04SP7,3A4NIXBJ7F0KPTZ9QZ382L483GXLM7,JI4A4,JI4A4,3A4NIXBJ7F0KPTZ9QZ382L483GXLM7,3A4NIXBJ7F0KPTZ9QZ382L483GXLM7,338054,338054,1,0.03,"""",1394.199999988079,1,stim1,1,Clockwise,true,"""",0.01,60,"""","""","2021-12-31 03:39:36",67.0.250.37,"Mozilla/5.0 (Windows NT 10.0; Win64; x64) AppleWebKit/537.36 (KHTML, like Gecko) Chrome/96.0.4664.110 Safari/537.36",WebKit,Chrome,96.0.4664.110,Windows,10.0,ac0f2dffeffaa78d35a552e03d03f0a8
