run_id,condition,success,exp_stage,trial_id,trial_type,trial_index,time_elapsed,internal_node_id,hitId,workerId,assignmentId,a,tp_a,b,tp_b,c,tp_c,conditionmyown,cen_signal_contrast_stim,view_history,rt,response,stimulus,correct_response,correct_response_in_clockwise_or_counterclockwise,correct,slider_start,ctx_signal_contrast,cen_angle_in_degree,cen_signal_contrast_catchStim,confidence,recorded_at,ip,user_agent,device,browser,browser_version,platform,platform_version,source_code_version
15,2,true,pre-exp,fullscreen_starts,fullscreen,0,16052,0.0-0.0,3PKVGQTFJQLSZOM7OKJDU84QFXXYRA,A20ASMCESA51U4,31LM9EDVOUTKCLW9ZF6VZLGG4H2JN3,V9L14,V9L14,31LM9EDVOUTKCLW9ZF6VZLGG4H2JN3,31LM9EDVOUTKCLW9ZF6VZLGG4H2JN3,338054,338054,2,0.04,"""","""","""","""","""","""","""","""","""","""","""","""","2021-12-31 03:31:15",172.58.27.74,"Mozilla/5.0 (Windows NT 6.1; Win64; x64; rv:68.0) Gecko/20100101 Goanna/4.8 Firefox/68.0 PaleMoon/29.4.1",,Firefox,68.0,Windows,6.1,ac0f2dffeffaa78d35a552e03d03f0a8
15,2,"""",pre-exp,instructionspage1,instructions,1,19824,0.0-1.0-0.0,3PKVGQTFJQLSZOM7OKJDU84QFXXYRA,A20ASMCESA51U4,31LM9EDVOUTKCLW9ZF6VZLGG4H2JN3,V9L14,V9L14,31LM9EDVOUTKCLW9ZF6VZLGG4H2JN3,31LM9EDVOUTKCLW9ZF6VZLGG4H2JN3,338054,338054,2,0.04,"[{""page_index"":0,""viewing_time"":3748}]",3750,"""","""","""","""","""","""","""","""","""","""","2021-12-31 03:31:15",172.58.27.74,"Mozilla/5.0 (Windows NT 6.1; Win64; x64; rv:68.0) Gecko/20100101 Goanna/4.8 Firefox/68.0 PaleMoon/29.4.1",,Firefox,68.0,Windows,6.1,ac0f2dffeffaa78d35a552e03d03f0a8
15,2,"""",pre-exp,instructions_block2,canvas-button-response,2,52888,0.0-2.0-0.0-0.0,3PKVGQTFJQLSZOM7OKJDU84QFXXYRA,A20ASMCESA51U4,31LM9EDVOUTKCLW9ZF6VZLGG4H2JN3,V9L14,V9L14,31LM9EDVOUTKCLW9ZF6VZLGG4H2JN3,31LM9EDVOUTKCLW9ZF6VZLGG4H2JN3,338054,338054,2,0.04,"""",32942,1,instructionStim1,1,Clockwise,true,"""","""","""","""","""","2021-12-31 03:31:15",172.58.27.74,"Mozilla/5.0 (Windows NT 6.1; Win64; x64; rv:68.0) Gecko/20100101 Goanna/4.8 Firefox/68.0 PaleMoon/29.4.1",,Firefox,68.0,Windows,6.1,ac0f2dffeffaa78d35a552e03d03f0a8
15,2,"""",pre-exp,instructions_block3,canvas-button-response,3,60302,0.0-3.0-0.0-0.0,3PKVGQTFJQLSZOM7OKJDU84QFXXYRA,A20ASMCESA51U4,31LM9EDVOUTKCLW9ZF6VZLGG4H2JN3,V9L14,V9L14,31LM9EDVOUTKCLW9ZF6VZLGG4H2JN3,31LM9EDVOUTKCLW9ZF6VZLGG4H2JN3,338054,338054,2,0.04,"""",7308,0,instructionStim2,0,Counter-clockwise,true,"""","""","""","""","""","2021-12-31 03:31:15",172.58.27.74,"Mozilla/5.0 (Windows NT 6.1; Win64; x64; rv:68.0) Gecko/20100101 Goanna/4.8 Firefox/68.0 PaleMoon/29.4.1",,Firefox,68.0,Windows,6.1,ac0f2dffeffaa78d35a552e03d03f0a8
15,2,"""",pre-exp,instructions_block4,html-slider-response,4,85534,0.0-4.0,3PKVGQTFJQLSZOM7OKJDU84QFXXYRA,A20ASMCESA51U4,31LM9EDVOUTKCLW9ZF6VZLGG4H2JN3,V9L14,V9L14,31LM9EDVOUTKCLW9ZF6VZLGG4H2JN3,31LM9EDVOUTKCLW9ZF6VZLGG4H2JN3,338054,338054,2,0.04,"""",25224,98,"<div id=""message-div""><p>After you have made your clockwise/counter-clockwise choice, <br>you will be asked to rate how confident you are that you were correct in your clockwise/counter-clockwise choice using a slide bar.<br>Please try to use the entire range of the slider bar.<br>For example, feel free to move the slider to the leftmost location if you are extremely uncertain about your choice, and the rightmost location if you are extremely certain.</p></div>","""","""","""",50,"""","""","""","""","2021-12-31 03:31:15",172.58.27.74,"Mozilla/5.0 (Windows NT 6.1; Win64; x64; rv:68.0) Gecko/20100101 Goanna/4.8 Firefox/68.0 PaleMoon/29.4.1",,Firefox,68.0,Windows,6.1,ac0f2dffeffaa78d35a552e03d03f0a8
15,2,"""",pre-exp,instructionspage5,instructions,5,96830,0.0-5.0-0.0,3PKVGQTFJQLSZOM7OKJDU84QFXXYRA,A20ASMCESA51U4,31LM9EDVOUTKCLW9ZF6VZLGG4H2JN3,V9L14,V9L14,31LM9EDVOUTKCLW9ZF6VZLGG4H2JN3,31LM9EDVOUTKCLW9ZF6VZLGG4H2JN3,338054,338054,2,0.04,"[{""page_index"":0,""viewing_time"":11284}]",11284,"""","""","""","""","""","""","""","""","""","""","2021-12-31 03:31:15",172.58.27.74,"Mozilla/5.0 (Windows NT 6.1; Win64; x64; rv:68.0) Gecko/20100101 Goanna/4.8 Firefox/68.0 PaleMoon/29.4.1",,Firefox,68.0,Windows,6.1,ac0f2dffeffaa78d35a552e03d03f0a8
15,2,"""",pre-exp,instructionspage6,instructions,6,99310,0.0-6.0-0.0,3PKVGQTFJQLSZOM7OKJDU84QFXXYRA,A20ASMCESA51U4,31LM9EDVOUTKCLW9ZF6VZLGG4H2JN3,V9L14,V9L14,31LM9EDVOUTKCLW9ZF6VZLGG4H2JN3,31LM9EDVOUTKCLW9ZF6VZLGG4H2JN3,338054,338054,2,0.04,"[{""page_index"":0,""viewing_time"":2476}]",2476,"""","""","""","""","""","""","""","""","""","""","2021-12-31 03:31:15",172.58.27.74,"Mozilla/5.0 (Windows NT 6.1; Win64; x64; rv:68.0) Gecko/20100101 Goanna/4.8 Firefox/68.0 PaleMoon/29.4.1",,Firefox,68.0,Windows,6.1,ac0f2dffeffaa78d35a552e03d03f0a8
15,2,"""",pre-exp,instructionspage7,instructions,7,109532,0.0-7.0-0.0,3PKVGQTFJQLSZOM7OKJDU84QFXXYRA,A20ASMCESA51U4,31LM9EDVOUTKCLW9ZF6VZLGG4H2JN3,V9L14,V9L14,31LM9EDVOUTKCLW9ZF6VZLGG4H2JN3,31LM9EDVOUTKCLW9ZF6VZLGG4H2JN3,338054,338054,2,0.04,"[{""page_index"":0,""viewing_time"":10212}]",10212,"""","""","""","""","""","""","""","""","""","""","2021-12-31 03:31:15",172.58.27.74,"Mozilla/5.0 (Windows NT 6.1; Win64; x64; rv:68.0) Gecko/20100101 Goanna/4.8 Firefox/68.0 PaleMoon/29.4.1",,Firefox,68.0,Windows,6.1,ac0f2dffeffaa78d35a552e03d03f0a8
15,2,"""",pre-exp,instructionspage8,instructions,8,114382,0.0-8.0-0.0,3PKVGQTFJQLSZOM7OKJDU84QFXXYRA,A20ASMCESA51U4,31LM9EDVOUTKCLW9ZF6VZLGG4H2JN3,V9L14,V9L14,31LM9EDVOUTKCLW9ZF6VZLGG4H2JN3,31LM9EDVOUTKCLW9ZF6VZLGG4H2JN3,338054,338054,2,0.04,"[{""page_index"":0,""viewing_time"":4844}]",4844,"""","""","""","""","""","""","""","""","""","""","2021-12-31 03:31:15",172.58.27.74,"Mozilla/5.0 (Windows NT 6.1; Win64; x64; rv:68.0) Gecko/20100101 Goanna/4.8 Firefox/68.0 PaleMoon/29.4.1",,Firefox,68.0,Windows,6.1,ac0f2dffeffaa78d35a552e03d03f0a8
15,2,"""",practice_procedure,fixation,html-keyboard-response,9,114902,0.0-9.0-0.0-0.0,3PKVGQTFJQLSZOM7OKJDU84QFXXYRA,A20ASMCESA51U4,31LM9EDVOUTKCLW9ZF6VZLGG4H2JN3,V9L14,V9L14,31LM9EDVOUTKCLW9ZF6VZLGG4H2JN3,31LM9EDVOUTKCLW9ZF6VZLGG4H2JN3,338054,338054,2,0.04,"""",null,null,"<div class = fixationbox><div class = fixation>+</div></div>","""","""","""","""","""","""","""","""","2021-12-31 03:31:15",172.58.27.74,"Mozilla/5.0 (Windows NT 6.1; Win64; x64; rv:68.0) Gecko/20100101 Goanna/4.8 Firefox/68.0 PaleMoon/29.4.1",,Firefox,68.0,Windows,6.1,ac0f2dffeffaa78d35a552e03d03f0a8
15,2,"""",practice_procedure,stim_practice,canvas-button-response,10,116886,0.0-9.0-0.0-1.0,3PKVGQTFJQLSZOM7OKJDU84QFXXYRA,A20ASMCESA51U4,31LM9EDVOUTKCLW9ZF6VZLGG4H2JN3,V9L14,V9L14,31LM9EDVOUTKCLW9ZF6VZLGG4H2JN3,31LM9EDVOUTKCLW9ZF6VZLGG4H2JN3,338054,338054,2,0.04,"""",1918,1,practiceStim3,1,Clockwise,true,"""",0.3,60,0.99,"""","2021-12-31 03:31:15",172.58.27.74,"Mozilla/5.0 (Windows NT 6.1; Win64; x64; rv:68.0) Gecko/20100101 Goanna/4.8 Firefox/68.0 PaleMoon/29.4.1",,Firefox,68.0,Windows,6.1,ac0f2dffeffaa78d35a552e03d03f0a8
15,2,"""",practice_procedure,confidence_rating,html-slider-response,11,122220,0.0-9.0-0.0-2.0,3PKVGQTFJQLSZOM7OKJDU84QFXXYRA,A20ASMCESA51U4,31LM9EDVOUTKCLW9ZF6VZLGG4H2JN3,V9L14,V9L14,31LM9EDVOUTKCLW9ZF6VZLGG4H2JN3,31LM9EDVOUTKCLW9ZF6VZLGG4H2JN3,338054,338054,2,0.04,"""",5330,96,"<div id=""message-div""><p>How confident are you that your clockwise/counter-clockwise response just now was accurate? Please rate your confidence on the slider bar below.</p></div>","""","""","""",50,"""","""","""",96,"2021-12-31 03:31:15",172.58.27.74,"Mozilla/5.0 (Windows NT 6.1; Win64; x64; rv:68.0) Gecko/20100101 Goanna/4.8 Firefox/68.0 PaleMoon/29.4.1",,Firefox,68.0,Windows,6.1,ac0f2dffeffaa78d35a552e03d03f0a8
15,2,"""",practice_procedure,fixation,html-keyboard-response,12,122736,0.0-9.0-0.0-0.1,3PKVGQTFJQLSZOM7OKJDU84QFXXYRA,A20ASMCESA51U4,31LM9EDVOUTKCLW9ZF6VZLGG4H2JN3,V9L14,V9L14,31LM9EDVOUTKCLW9ZF6VZLGG4H2JN3,31LM9EDVOUTKCLW9ZF6VZLGG4H2JN3,338054,338054,2,0.04,"""",null,null,"<div class = fixationbox><div class = fixation>+</div></div>","""","""","""","""","""","""","""","""","2021-12-31 03:31:15",172.58.27.74,"Mozilla/5.0 (Windows NT 6.1; Win64; x64; rv:68.0) Gecko/20100101 Goanna/4.8 Firefox/68.0 PaleMoon/29.4.1",,Firefox,68.0,Windows,6.1,ac0f2dffeffaa78d35a552e03d03f0a8
15,2,"""",practice_procedure,stim_practice,canvas-button-response,13,124228,0.0-9.0-0.0-1.1,3PKVGQTFJQLSZOM7OKJDU84QFXXYRA,A20ASMCESA51U4,31LM9EDVOUTKCLW9ZF6VZLGG4H2JN3,V9L14,V9L14,31LM9EDVOUTKCLW9ZF6VZLGG4H2JN3,31LM9EDVOUTKCLW9ZF6VZLGG4H2JN3,338054,338054,2,0.04,"""",1428,1,practiceStim3,1,Clockwise,true,"""",0.3,60,0.99,"""","2021-12-31 03:31:15",172.58.27.74,"Mozilla/5.0 (Windows NT 6.1; Win64; x64; rv:68.0) Gecko/20100101 Goanna/4.8 Firefox/68.0 PaleMoon/29.4.1",,Firefox,68.0,Windows,6.1,ac0f2dffeffaa78d35a552e03d03f0a8
15,2,"""",practice_procedure,confidence_rating,html-slider-response,14,127742,0.0-9.0-0.0-2.1,3PKVGQTFJQLSZOM7OKJDU84QFXXYRA,A20ASMCESA51U4,31LM9EDVOUTKCLW9ZF6VZLGG4H2JN3,V9L14,V9L14,31LM9EDVOUTKCLW9ZF6VZLGG4H2JN3,31LM9EDVOUTKCLW9ZF6VZLGG4H2JN3,338054,338054,2,0.04,"""",3508,97,"<div id=""message-div""><p>How confident are you that your clockwise/counter-clockwise response just now was accurate? Please rate your confidence on the slider bar below.</p></div>","""","""","""",50,"""","""","""",97,"2021-12-31 03:31:15",172.58.27.74,"Mozilla/5.0 (Windows NT 6.1; Win64; x64; rv:68.0) Gecko/20100101 Goanna/4.8 Firefox/68.0 PaleMoon/29.4.1",,Firefox,68.0,Windows,6.1,ac0f2dffeffaa78d35a552e03d03f0a8
15,2,"""",practice_procedure,fixation,html-keyboard-response,15,128244,0.0-9.0-0.0-0.2,3PKVGQTFJQLSZOM7OKJDU84QFXXYRA,A20ASMCESA51U4,31LM9EDVOUTKCLW9ZF6VZLGG4H2JN3,V9L14,V9L14,31LM9EDVOUTKCLW9ZF6VZLGG4H2JN3,31LM9EDVOUTKCLW9ZF6VZLGG4H2JN3,338054,338054,2,0.04,"""",null,null,"<div class = fixationbox><div class = fixation>+</div></div>","""","""","""","""","""","""","""","""","2021-12-31 03:31:15",172.58.27.74,"Mozilla/5.0 (Windows NT 6.1; Win64; x64; rv:68.0) Gecko/20100101 Goanna/4.8 Firefox/68.0 PaleMoon/29.4.1",,Firefox,68.0,Windows,6.1,ac0f2dffeffaa78d35a552e03d03f0a8
15,2,"""",practice_procedure,stim_practice,canvas-button-response,16,130228,0.0-9.0-0.0-1.2,3PKVGQTFJQLSZOM7OKJDU84QFXXYRA,A20ASMCESA51U4,31LM9EDVOUTKCLW9ZF6VZLGG4H2JN3,V9L14,V9L14,31LM9EDVOUTKCLW9ZF6VZLGG4H2JN3,31LM9EDVOUTKCLW9ZF6VZLGG4H2JN3,338054,338054,2,0.04,"""",1920,1,practiceStim3,1,Clockwise,true,"""",0.3,60,0.99,"""","2021-12-31 03:31:15",172.58.27.74,"Mozilla/5.0 (Windows NT 6.1; Win64; x64; rv:68.0) Gecko/20100101 Goanna/4.8 Firefox/68.0 PaleMoon/29.4.1",,Firefox,68.0,Windows,6.1,ac0f2dffeffaa78d35a552e03d03f0a8
15,2,"""",practice_procedure,confidence_rating,html-slider-response,17,133356,0.0-9.0-0.0-2.2,3PKVGQTFJQLSZOM7OKJDU84QFXXYRA,A20ASMCESA51U4,31LM9EDVOUTKCLW9ZF6VZLGG4H2JN3,V9L14,V9L14,31LM9EDVOUTKCLW9ZF6VZLGG4H2JN3,31LM9EDVOUTKCLW9ZF6VZLGG4H2JN3,338054,338054,2,0.04,"""",3112,99,"<div id=""message-div""><p>How confident are you that your clockwise/counter-clockwise response just now was accurate? Please rate your confidence on the slider bar below.</p></div>","""","""","""",50,"""","""","""",99,"2021-12-31 03:31:15",172.58.27.74,"Mozilla/5.0 (Windows NT 6.1; Win64; x64; rv:68.0) Gecko/20100101 Goanna/4.8 Firefox/68.0 PaleMoon/29.4.1",,Firefox,68.0,Windows,6.1,ac0f2dffeffaa78d35a552e03d03f0a8
15,2,"""",practice_procedure,fixation,html-keyboard-response,18,133862,0.0-9.0-0.0-0.3,3PKVGQTFJQLSZOM7OKJDU84QFXXYRA,A20ASMCESA51U4,31LM9EDVOUTKCLW9ZF6VZLGG4H2JN3,V9L14,V9L14,31LM9EDVOUTKCLW9ZF6VZLGG4H2JN3,31LM9EDVOUTKCLW9ZF6VZLGG4H2JN3,338054,338054,2,0.04,"""",null,null,"<div class = fixationbox><div class = fixation>+</div></div>","""","""","""","""","""","""","""","""","2021-12-31 03:31:15",172.58.27.74,"Mozilla/5.0 (Windows NT 6.1; Win64; x64; rv:68.0) Gecko/20100101 Goanna/4.8 Firefox/68.0 PaleMoon/29.4.1",,Firefox,68.0,Windows,6.1,ac0f2dffeffaa78d35a552e03d03f0a8
15,2,"""",practice_procedure,stim_practice,canvas-button-response,19,135196,0.0-9.0-0.0-1.3,3PKVGQTFJQLSZOM7OKJDU84QFXXYRA,A20ASMCESA51U4,31LM9EDVOUTKCLW9ZF6VZLGG4H2JN3,V9L14,V9L14,31LM9EDVOUTKCLW9ZF6VZLGG4H2JN3,31LM9EDVOUTKCLW9ZF6VZLGG4H2JN3,338054,338054,2,0.04,"""",1272,0,practiceStim2,0,Counter-clockwise,true,"""",0.01,120,0.99,"""","2021-12-31 03:31:15",172.58.27.74,"Mozilla/5.0 (Windows NT 6.1; Win64; x64; rv:68.0) Gecko/20100101 Goanna/4.8 Firefox/68.0 PaleMoon/29.4.1",,Firefox,68.0,Windows,6.1,ac0f2dffeffaa78d35a552e03d03f0a8
15,2,"""",practice_procedure,confidence_rating,html-slider-response,20,140012,0.0-9.0-0.0-2.3,3PKVGQTFJQLSZOM7OKJDU84QFXXYRA,A20ASMCESA51U4,31LM9EDVOUTKCLW9ZF6VZLGG4H2JN3,V9L14,V9L14,31LM9EDVOUTKCLW9ZF6VZLGG4H2JN3,31LM9EDVOUTKCLW9ZF6VZLGG4H2JN3,338054,338054,2,0.04,"""",4806,99,"<div id=""message-div""><p>How confident are you that your clockwise/counter-clockwise response just now was accurate? Please rate your confidence on the slider bar below.</p></div>","""","""","""",50,"""","""","""",99,"2021-12-31 03:31:15",172.58.27.74,"Mozilla/5.0 (Windows NT 6.1; Win64; x64; rv:68.0) Gecko/20100101 Goanna/4.8 Firefox/68.0 PaleMoon/29.4.1",,Firefox,68.0,Windows,6.1,ac0f2dffeffaa78d35a552e03d03f0a8
15,2,"""",practice_procedure,fixation,html-keyboard-response,21,140540,0.0-9.0-0.0-0.4,3PKVGQTFJQLSZOM7OKJDU84QFXXYRA,A20ASMCESA51U4,31LM9EDVOUTKCLW9ZF6VZLGG4H2JN3,V9L14,V9L14,31LM9EDVOUTKCLW9ZF6VZLGG4H2JN3,31LM9EDVOUTKCLW9ZF6VZLGG4H2JN3,338054,338054,2,0.04,"""",null,null,"<div class = fixationbox><div class = fixation>+</div></div>","""","""","""","""","""","""","""","""","2021-12-31 03:31:15",172.58.27.74,"Mozilla/5.0 (Windows NT 6.1; Win64; x64; rv:68.0) Gecko/20100101 Goanna/4.8 Firefox/68.0 PaleMoon/29.4.1",,Firefox,68.0,Windows,6.1,ac0f2dffeffaa78d35a552e03d03f0a8
15,2,"""",practice_procedure,stim_practice,canvas-button-response,22,142388,0.0-9.0-0.0-1.4,3PKVGQTFJQLSZOM7OKJDU84QFXXYRA,A20ASMCESA51U4,31LM9EDVOUTKCLW9ZF6VZLGG4H2JN3,V9L14,V9L14,31LM9EDVOUTKCLW9ZF6VZLGG4H2JN3,31LM9EDVOUTKCLW9ZF6VZLGG4H2JN3,338054,338054,2,0.04,"""",1788,1,practiceStim1,1,Clockwise,true,"""",0.01,60,0.99,"""","2021-12-31 03:31:15",172.58.27.74,"Mozilla/5.0 (Windows NT 6.1; Win64; x64; rv:68.0) Gecko/20100101 Goanna/4.8 Firefox/68.0 PaleMoon/29.4.1",,Firefox,68.0,Windows,6.1,ac0f2dffeffaa78d35a552e03d03f0a8
15,2,"""",practice_procedure,confidence_rating,html-slider-response,23,146364,0.0-9.0-0.0-2.4,3PKVGQTFJQLSZOM7OKJDU84QFXXYRA,A20ASMCESA51U4,31LM9EDVOUTKCLW9ZF6VZLGG4H2JN3,V9L14,V9L14,31LM9EDVOUTKCLW9ZF6VZLGG4H2JN3,31LM9EDVOUTKCLW9ZF6VZLGG4H2JN3,338054,338054,2,0.04,"""",3972,99,"<div id=""message-div""><p>How confident are you that your clockwise/counter-clockwise response just now was accurate? Please rate your confidence on the slider bar below.</p></div>","""","""","""",50,"""","""","""",99,"2021-12-31 03:31:15",172.58.27.74,"Mozilla/5.0 (Windows NT 6.1; Win64; x64; rv:68.0) Gecko/20100101 Goanna/4.8 Firefox/68.0 PaleMoon/29.4.1",,Firefox,68.0,Windows,6.1,ac0f2dffeffaa78d35a552e03d03f0a8
15,2,"""",practice_procedure,fixation,html-keyboard-response,24,146868,0.0-9.0-0.0-0.5,3PKVGQTFJQLSZOM7OKJDU84QFXXYRA,A20ASMCESA51U4,31LM9EDVOUTKCLW9ZF6VZLGG4H2JN3,V9L14,V9L14,31LM9EDVOUTKCLW9ZF6VZLGG4H2JN3,31LM9EDVOUTKCLW9ZF6VZLGG4H2JN3,338054,338054,2,0.04,"""",null,null,"<div class = fixationbox><div class = fixation>+</div></div>","""","""","""","""","""","""","""","""","2021-12-31 03:31:15",172.58.27.74,"Mozilla/5.0 (Windows NT 6.1; Win64; x64; rv:68.0) Gecko/20100101 Goanna/4.8 Firefox/68.0 PaleMoon/29.4.1",,Firefox,68.0,Windows,6.1,ac0f2dffeffaa78d35a552e03d03f0a8
15,2,"""",practice_procedure,stim_practice,canvas-button-response,25,148828,0.0-9.0-0.0-1.5,3PKVGQTFJQLSZOM7OKJDU84QFXXYRA,A20ASMCESA51U4,31LM9EDVOUTKCLW9ZF6VZLGG4H2JN3,V9L14,V9L14,31LM9EDVOUTKCLW9ZF6VZLGG4H2JN3,31LM9EDVOUTKCLW9ZF6VZLGG4H2JN3,338054,338054,2,0.04,"""",1884,1,practiceStim3,1,Clockwise,true,"""",0.3,60,0.99,"""","2021-12-31 03:31:15",172.58.27.74,"Mozilla/5.0 (Windows NT 6.1; Win64; x64; rv:68.0) Gecko/20100101 Goanna/4.8 Firefox/68.0 PaleMoon/29.4.1",,Firefox,68.0,Windows,6.1,ac0f2dffeffaa78d35a552e03d03f0a8
15,2,"""",practice_procedure,confidence_rating,html-slider-response,26,153692,0.0-9.0-0.0-2.5,3PKVGQTFJQLSZOM7OKJDU84QFXXYRA,A20ASMCESA51U4,31LM9EDVOUTKCLW9ZF6VZLGG4H2JN3,V9L14,V9L14,31LM9EDVOUTKCLW9ZF6VZLGG4H2JN3,31LM9EDVOUTKCLW9ZF6VZLGG4H2JN3,338054,338054,2,0.04,"""",4856,100,"<div id=""message-div""><p>How confident are you that your clockwise/counter-clockwise response just now was accurate? Please rate your confidence on the slider bar below.</p></div>","""","""","""",50,"""","""","""",100,"2021-12-31 03:31:15",172.58.27.74,"Mozilla/5.0 (Windows NT 6.1; Win64; x64; rv:68.0) Gecko/20100101 Goanna/4.8 Firefox/68.0 PaleMoon/29.4.1",,Firefox,68.0,Windows,6.1,ac0f2dffeffaa78d35a552e03d03f0a8
15,2,"""",practice_procedure,fixation,html-keyboard-response,27,154206,0.0-9.0-0.0-0.6,3PKVGQTFJQLSZOM7OKJDU84QFXXYRA,A20ASMCESA51U4,31LM9EDVOUTKCLW9ZF6VZLGG4H2JN3,V9L14,V9L14,31LM9EDVOUTKCLW9ZF6VZLGG4H2JN3,31LM9EDVOUTKCLW9ZF6VZLGG4H2JN3,338054,338054,2,0.04,"""",null,null,"<div class = fixationbox><div class = fixation>+</div></div>","""","""","""","""","""","""","""","""","2021-12-31 03:31:15",172.58.27.74,"Mozilla/5.0 (Windows NT 6.1; Win64; x64; rv:68.0) Gecko/20100101 Goanna/4.8 Firefox/68.0 PaleMoon/29.4.1",,Firefox,68.0,Windows,6.1,ac0f2dffeffaa78d35a552e03d03f0a8
15,2,"""",practice_procedure,stim_practice,canvas-button-response,28,155860,0.0-9.0-0.0-1.6,3PKVGQTFJQLSZOM7OKJDU84QFXXYRA,A20ASMCESA51U4,31LM9EDVOUTKCLW9ZF6VZLGG4H2JN3,V9L14,V9L14,31LM9EDVOUTKCLW9ZF6VZLGG4H2JN3,31LM9EDVOUTKCLW9ZF6VZLGG4H2JN3,338054,338054,2,0.04,"""",1588,0,practiceStim4,0,Counter-clockwise,true,"""",0.3,120,0.99,"""","2021-12-31 03:31:15",172.58.27.74,"Mozilla/5.0 (Windows NT 6.1; Win64; x64; rv:68.0) Gecko/20100101 Goanna/4.8 Firefox/68.0 PaleMoon/29.4.1",,Firefox,68.0,Windows,6.1,ac0f2dffeffaa78d35a552e03d03f0a8
15,2,"""",practice_procedure,confidence_rating,html-slider-response,29,159596,0.0-9.0-0.0-2.6,3PKVGQTFJQLSZOM7OKJDU84QFXXYRA,A20ASMCESA51U4,31LM9EDVOUTKCLW9ZF6VZLGG4H2JN3,V9L14,V9L14,31LM9EDVOUTKCLW9ZF6VZLGG4H2JN3,31LM9EDVOUTKCLW9ZF6VZLGG4H2JN3,338054,338054,2,0.04,"""",3732,100,"<div id=""message-div""><p>How confident are you that your clockwise/counter-clockwise response just now was accurate? Please rate your confidence on the slider bar below.</p></div>","""","""","""",50,"""","""","""",100,"2021-12-31 03:31:15",172.58.27.74,"Mozilla/5.0 (Windows NT 6.1; Win64; x64; rv:68.0) Gecko/20100101 Goanna/4.8 Firefox/68.0 PaleMoon/29.4.1",,Firefox,68.0,Windows,6.1,ac0f2dffeffaa78d35a552e03d03f0a8
15,2,"""",practice_procedure,fixation,html-keyboard-response,30,160100,0.0-9.0-0.0-0.7,3PKVGQTFJQLSZOM7OKJDU84QFXXYRA,A20ASMCESA51U4,31LM9EDVOUTKCLW9ZF6VZLGG4H2JN3,V9L14,V9L14,31LM9EDVOUTKCLW9ZF6VZLGG4H2JN3,31LM9EDVOUTKCLW9ZF6VZLGG4H2JN3,338054,338054,2,0.04,"""",null,null,"<div class = fixationbox><div class = fixation>+</div></div>","""","""","""","""","""","""","""","""","2021-12-31 03:31:15",172.58.27.74,"Mozilla/5.0 (Windows NT 6.1; Win64; x64; rv:68.0) Gecko/20100101 Goanna/4.8 Firefox/68.0 PaleMoon/29.4.1",,Firefox,68.0,Windows,6.1,ac0f2dffeffaa78d35a552e03d03f0a8
15,2,"""",practice_procedure,stim_practice,canvas-button-response,31,161556,0.0-9.0-0.0-1.7,3PKVGQTFJQLSZOM7OKJDU84QFXXYRA,A20ASMCESA51U4,31LM9EDVOUTKCLW9ZF6VZLGG4H2JN3,V9L14,V9L14,31LM9EDVOUTKCLW9ZF6VZLGG4H2JN3,31LM9EDVOUTKCLW9ZF6VZLGG4H2JN3,338054,338054,2,0.04,"""",1394,0,practiceStim2,0,Counter-clockwise,true,"""",0.01,120,0.99,"""","2021-12-31 03:31:15",172.58.27.74,"Mozilla/5.0 (Windows NT 6.1; Win64; x64; rv:68.0) Gecko/20100101 Goanna/4.8 Firefox/68.0 PaleMoon/29.4.1",,Firefox,68.0,Windows,6.1,ac0f2dffeffaa78d35a552e03d03f0a8
15,2,"""",practice_procedure,confidence_rating,html-slider-response,32,164260,0.0-9.0-0.0-2.7,3PKVGQTFJQLSZOM7OKJDU84QFXXYRA,A20ASMCESA51U4,31LM9EDVOUTKCLW9ZF6VZLGG4H2JN3,V9L14,V9L14,31LM9EDVOUTKCLW9ZF6VZLGG4H2JN3,31LM9EDVOUTKCLW9ZF6VZLGG4H2JN3,338054,338054,2,0.04,"""",2688,100,"<div id=""message-div""><p>How confident are you that your clockwise/counter-clockwise response just now was accurate? Please rate your confidence on the slider bar below.</p></div>","""","""","""",50,"""","""","""",100,"2021-12-31 03:31:15",172.58.27.74,"Mozilla/5.0 (Windows NT 6.1; Win64; x64; rv:68.0) Gecko/20100101 Goanna/4.8 Firefox/68.0 PaleMoon/29.4.1",,Firefox,68.0,Windows,6.1,ac0f2dffeffaa78d35a552e03d03f0a8
15,2,"""",practice_procedure,fixation,html-keyboard-response,33,164762,0.0-9.0-0.0-0.8,3PKVGQTFJQLSZOM7OKJDU84QFXXYRA,A20ASMCESA51U4,31LM9EDVOUTKCLW9ZF6VZLGG4H2JN3,V9L14,V9L14,31LM9EDVOUTKCLW9ZF6VZLGG4H2JN3,31LM9EDVOUTKCLW9ZF6VZLGG4H2JN3,338054,338054,2,0.04,"""",null,null,"<div class = fixationbox><div class = fixation>+</div></div>","""","""","""","""","""","""","""","""","2021-12-31 03:31:15",172.58.27.74,"Mozilla/5.0 (Windows NT 6.1; Win64; x64; rv:68.0) Gecko/20100101 Goanna/4.8 Firefox/68.0 PaleMoon/29.4.1",,Firefox,68.0,Windows,6.1,ac0f2dffeffaa78d35a552e03d03f0a8
15,2,"""",practice_procedure,stim_practice,canvas-button-response,34,166012,0.0-9.0-0.0-1.8,3PKVGQTFJQLSZOM7OKJDU84QFXXYRA,A20ASMCESA51U4,31LM9EDVOUTKCLW9ZF6VZLGG4H2JN3,V9L14,V9L14,31LM9EDVOUTKCLW9ZF6VZLGG4H2JN3,31LM9EDVOUTKCLW9ZF6VZLGG4H2JN3,338054,338054,2,0.04,"""",1186,1,practiceStim3,1,Clockwise,true,"""",0.3,60,0.99,"""","2021-12-31 03:31:15",172.58.27.74,"Mozilla/5.0 (Windows NT 6.1; Win64; x64; rv:68.0) Gecko/20100101 Goanna/4.8 Firefox/68.0 PaleMoon/29.4.1",,Firefox,68.0,Windows,6.1,ac0f2dffeffaa78d35a552e03d03f0a8
15,2,"""",practice_procedure,confidence_rating,html-slider-response,35,169508,0.0-9.0-0.0-2.8,3PKVGQTFJQLSZOM7OKJDU84QFXXYRA,A20ASMCESA51U4,31LM9EDVOUTKCLW9ZF6VZLGG4H2JN3,V9L14,V9L14,31LM9EDVOUTKCLW9ZF6VZLGG4H2JN3,31LM9EDVOUTKCLW9ZF6VZLGG4H2JN3,338054,338054,2,0.04,"""",3492,100,"<div id=""message-div""><p>How confident are you that your clockwise/counter-clockwise response just now was accurate? Please rate your confidence on the slider bar below.</p></div>","""","""","""",50,"""","""","""",100,"2021-12-31 03:31:15",172.58.27.74,"Mozilla/5.0 (Windows NT 6.1; Win64; x64; rv:68.0) Gecko/20100101 Goanna/4.8 Firefox/68.0 PaleMoon/29.4.1",,Firefox,68.0,Windows,6.1,ac0f2dffeffaa78d35a552e03d03f0a8
15,2,"""",practice_procedure,fixation,html-keyboard-response,36,170018,0.0-9.0-0.0-0.9,3PKVGQTFJQLSZOM7OKJDU84QFXXYRA,A20ASMCESA51U4,31LM9EDVOUTKCLW9ZF6VZLGG4H2JN3,V9L14,V9L14,31LM9EDVOUTKCLW9ZF6VZLGG4H2JN3,31LM9EDVOUTKCLW9ZF6VZLGG4H2JN3,338054,338054,2,0.04,"""",null,null,"<div class = fixationbox><div class = fixation>+</div></div>","""","""","""","""","""","""","""","""","2021-12-31 03:31:15",172.58.27.74,"Mozilla/5.0 (Windows NT 6.1; Win64; x64; rv:68.0) Gecko/20100101 Goanna/4.8 Firefox/68.0 PaleMoon/29.4.1",,Firefox,68.0,Windows,6.1,ac0f2dffeffaa78d35a552e03d03f0a8
15,2,"""",practice_procedure,stim_practice,canvas-button-response,37,171332,0.0-9.0-0.0-1.9,3PKVGQTFJQLSZOM7OKJDU84QFXXYRA,A20ASMCESA51U4,31LM9EDVOUTKCLW9ZF6VZLGG4H2JN3,V9L14,V9L14,31LM9EDVOUTKCLW9ZF6VZLGG4H2JN3,31LM9EDVOUTKCLW9ZF6VZLGG4H2JN3,338054,338054,2,0.04,"""",1248,1,practiceStim1,1,Clockwise,true,"""",0.01,60,0.99,"""","2021-12-31 03:31:15",172.58.27.74,"Mozilla/5.0 (Windows NT 6.1; Win64; x64; rv:68.0) Gecko/20100101 Goanna/4.8 Firefox/68.0 PaleMoon/29.4.1",,Firefox,68.0,Windows,6.1,ac0f2dffeffaa78d35a552e03d03f0a8
15,2,"""",practice_procedure,confidence_rating,html-slider-response,38,173884,0.0-9.0-0.0-2.9,3PKVGQTFJQLSZOM7OKJDU84QFXXYRA,A20ASMCESA51U4,31LM9EDVOUTKCLW9ZF6VZLGG4H2JN3,V9L14,V9L14,31LM9EDVOUTKCLW9ZF6VZLGG4H2JN3,31LM9EDVOUTKCLW9ZF6VZLGG4H2JN3,338054,338054,2,0.04,"""",2546,100,"<div id=""message-div""><p>How confident are you that your clockwise/counter-clockwise response just now was accurate? Please rate your confidence on the slider bar below.</p></div>","""","""","""",50,"""","""","""",100,"2021-12-31 03:31:15",172.58.27.74,"Mozilla/5.0 (Windows NT 6.1; Win64; x64; rv:68.0) Gecko/20100101 Goanna/4.8 Firefox/68.0 PaleMoon/29.4.1",,Firefox,68.0,Windows,6.1,ac0f2dffeffaa78d35a552e03d03f0a8
15,2,"""",pre-test,test_instruction,instructions,39,199970,0.0-10.0,3PKVGQTFJQLSZOM7OKJDU84QFXXYRA,A20ASMCESA51U4,31LM9EDVOUTKCLW9ZF6VZLGG4H2JN3,V9L14,V9L14,31LM9EDVOUTKCLW9ZF6VZLGG4H2JN3,31LM9EDVOUTKCLW9ZF6VZLGG4H2JN3,338054,338054,2,0.04,"[{""page_index"":0,""viewing_time"":26082}]",26082,"""","""","""","""","""","""","""","""","""","""","2021-12-31 03:31:15",172.58.27.74,"Mozilla/5.0 (Windows NT 6.1; Win64; x64; rv:68.0) Gecko/20100101 Goanna/4.8 Firefox/68.0 PaleMoon/29.4.1",,Firefox,68.0,Windows,6.1,ac0f2dffeffaa78d35a552e03d03f0a8
15,2,"""",test_procedure,fixation,html-keyboard-response,40,200482,0.0-11.0-0.0-0.0,3PKVGQTFJQLSZOM7OKJDU84QFXXYRA,A20ASMCESA51U4,31LM9EDVOUTKCLW9ZF6VZLGG4H2JN3,V9L14,V9L14,31LM9EDVOUTKCLW9ZF6VZLGG4H2JN3,31LM9EDVOUTKCLW9ZF6VZLGG4H2JN3,338054,338054,2,0.04,"""",null,null,"<div class = fixationbox><div class = fixation>+</div></div>","""","""","""","""","""","""","""","""","2021-12-31 03:31:15",172.58.27.74,"Mozilla/5.0 (Windows NT 6.1; Win64; x64; rv:68.0) Gecko/20100101 Goanna/4.8 Firefox/68.0 PaleMoon/29.4.1",,Firefox,68.0,Windows,6.1,ac0f2dffeffaa78d35a552e03d03f0a8
15,2,"""",test_procedure,stim_test,canvas-button-response,41,203218,0.0-11.0-0.0-1.0,3PKVGQTFJQLSZOM7OKJDU84QFXXYRA,A20ASMCESA51U4,31LM9EDVOUTKCLW9ZF6VZLGG4H2JN3,V9L14,V9L14,31LM9EDVOUTKCLW9ZF6VZLGG4H2JN3,31LM9EDVOUTKCLW9ZF6VZLGG4H2JN3,338054,338054,2,0.04,"""",2672,0,stim3,1,Clockwise,false,"""",0.3,60,"""","""","2021-12-31 03:31:15",172.58.27.74,"Mozilla/5.0 (Windows NT 6.1; Win64; x64; rv:68.0) Gecko/20100101 Goanna/4.8 Firefox/68.0 PaleMoon/29.4.1",,Firefox,68.0,Windows,6.1,ac0f2dffeffaa78d35a552e03d03f0a8
15,2,"""",test_procedure,confidence_rating,html-slider-response,42,206466,0.0-11.0-0.0-2.0,3PKVGQTFJQLSZOM7OKJDU84QFXXYRA,A20ASMCESA51U4,31LM9EDVOUTKCLW9ZF6VZLGG4H2JN3,V9L14,V9L14,31LM9EDVOUTKCLW9ZF6VZLGG4H2JN3,31LM9EDVOUTKCLW9ZF6VZLGG4H2JN3,338054,338054,2,0.04,"""",3246,17,"<div id=""message-div""><p>How confident are you that your clockwise/counter-clockwise response just now was accurate? Please rate your confidence on the slider bar below.</p></div>","""","""","""",50,"""","""","""",17,"2021-12-31 03:31:15",172.58.27.74,"Mozilla/5.0 (Windows NT 6.1; Win64; x64; rv:68.0) Gecko/20100101 Goanna/4.8 Firefox/68.0 PaleMoon/29.4.1",,Firefox,68.0,Windows,6.1,ac0f2dffeffaa78d35a552e03d03f0a8
15,2,"""",test_procedure,fixation,html-keyboard-response,43,206972,0.0-11.0-0.0-0.1,3PKVGQTFJQLSZOM7OKJDU84QFXXYRA,A20ASMCESA51U4,31LM9EDVOUTKCLW9ZF6VZLGG4H2JN3,V9L14,V9L14,31LM9EDVOUTKCLW9ZF6VZLGG4H2JN3,31LM9EDVOUTKCLW9ZF6VZLGG4H2JN3,338054,338054,2,0.04,"""",null,null,"<div class = fixationbox><div class = fixation>+</div></div>","""","""","""","""","""","""","""","""","2021-12-31 03:31:15",172.58.27.74,"Mozilla/5.0 (Windows NT 6.1; Win64; x64; rv:68.0) Gecko/20100101 Goanna/4.8 Firefox/68.0 PaleMoon/29.4.1",,Firefox,68.0,Windows,6.1,ac0f2dffeffaa78d35a552e03d03f0a8
15,2,"""",test_procedure,stim_test,canvas-button-response,44,208762,0.0-11.0-0.0-1.1,3PKVGQTFJQLSZOM7OKJDU84QFXXYRA,A20ASMCESA51U4,31LM9EDVOUTKCLW9ZF6VZLGG4H2JN3,V9L14,V9L14,31LM9EDVOUTKCLW9ZF6VZLGG4H2JN3,31LM9EDVOUTKCLW9ZF6VZLGG4H2JN3,338054,338054,2,0.04,"""",1720,1,stim1,1,Clockwise,true,"""",0.01,60,"""","""","2021-12-31 03:31:15",172.58.27.74,"Mozilla/5.0 (Windows NT 6.1; Win64; x64; rv:68.0) Gecko/20100101 Goanna/4.8 Firefox/68.0 PaleMoon/29.4.1",,Firefox,68.0,Windows,6.1,ac0f2dffeffaa78d35a552e03d03f0a8
15,2,"""",test_procedure,confidence_rating,html-slider-response,45,212786,0.0-11.0-0.0-2.1,3PKVGQTFJQLSZOM7OKJDU84QFXXYRA,A20ASMCESA51U4,31LM9EDVOUTKCLW9ZF6VZLGG4H2JN3,V9L14,V9L14,31LM9EDVOUTKCLW9ZF6VZLGG4H2JN3,31LM9EDVOUTKCLW9ZF6VZLGG4H2JN3,338054,338054,2,0.04,"""",4020,58,"<div id=""message-div""><p>How confident are you that your clockwise/counter-clockwise response just now was accurate? Please rate your confidence on the slider bar below.</p></div>","""","""","""",50,"""","""","""",58,"2021-12-31 03:31:15",172.58.27.74,"Mozilla/5.0 (Windows NT 6.1; Win64; x64; rv:68.0) Gecko/20100101 Goanna/4.8 Firefox/68.0 PaleMoon/29.4.1",,Firefox,68.0,Windows,6.1,ac0f2dffeffaa78d35a552e03d03f0a8
15,2,"""",test_procedure,fixation,html-keyboard-response,46,213292,0.0-11.0-0.0-0.2,3PKVGQTFJQLSZOM7OKJDU84QFXXYRA,A20ASMCESA51U4,31LM9EDVOUTKCLW9ZF6VZLGG4H2JN3,V9L14,V9L14,31LM9EDVOUTKCLW9ZF6VZLGG4H2JN3,31LM9EDVOUTKCLW9ZF6VZLGG4H2JN3,338054,338054,2,0.04,"""",null,null,"<div class = fixationbox><div class = fixation>+</div></div>","""","""","""","""","""","""","""","""","2021-12-31 03:31:15",172.58.27.74,"Mozilla/5.0 (Windows NT 6.1; Win64; x64; rv:68.0) Gecko/20100101 Goanna/4.8 Firefox/68.0 PaleMoon/29.4.1",,Firefox,68.0,Windows,6.1,ac0f2dffeffaa78d35a552e03d03f0a8
15,2,"""",test_procedure,stim_test,canvas-button-response,47,215362,0.0-11.0-0.0-1.2,3PKVGQTFJQLSZOM7OKJDU84QFXXYRA,A20ASMCESA51U4,31LM9EDVOUTKCLW9ZF6VZLGG4H2JN3,V9L14,V9L14,31LM9EDVOUTKCLW9ZF6VZLGG4H2JN3,31LM9EDVOUTKCLW9ZF6VZLGG4H2JN3,338054,338054,2,0.04,"""",1932,1,stim3,1,Clockwise,true,"""",0.3,60,"""","""","2021-12-31 03:31:15",172.58.27.74,"Mozilla/5.0 (Windows NT 6.1; Win64; x64; rv:68.0) Gecko/20100101 Goanna/4.8 Firefox/68.0 PaleMoon/29.4.1",,Firefox,68.0,Windows,6.1,ac0f2dffeffaa78d35a552e03d03f0a8
15,2,"""",test_procedure,confidence_rating,html-slider-response,48,218018,0.0-11.0-0.0-2.2,3PKVGQTFJQLSZOM7OKJDU84QFXXYRA,A20ASMCESA51U4,31LM9EDVOUTKCLW9ZF6VZLGG4H2JN3,V9L14,V9L14,31LM9EDVOUTKCLW9ZF6VZLGG4H2JN3,31LM9EDVOUTKCLW9ZF6VZLGG4H2JN3,338054,338054,2,0.04,"""",2638,17,"<div id=""message-div""><p>How confident are you that your clockwise/counter-clockwise response just now was accurate? Please rate your confidence on the slider bar below.</p></div>","""","""","""",50,"""","""","""",17,"2021-12-31 03:31:15",172.58.27.74,"Mozilla/5.0 (Windows NT 6.1; Win64; x64; rv:68.0) Gecko/20100101 Goanna/4.8 Firefox/68.0 PaleMoon/29.4.1",,Firefox,68.0,Windows,6.1,ac0f2dffeffaa78d35a552e03d03f0a8
15,2,"""",test_procedure,fixation,html-keyboard-response,49,218524,0.0-11.0-0.0-0.3,3PKVGQTFJQLSZOM7OKJDU84QFXXYRA,A20ASMCESA51U4,31LM9EDVOUTKCLW9ZF6VZLGG4H2JN3,V9L14,V9L14,31LM9EDVOUTKCLW9ZF6VZLGG4H2JN3,31LM9EDVOUTKCLW9ZF6VZLGG4H2JN3,338054,338054,2,0.04,"""",null,null,"<div class = fixationbox><div class = fixation>+</div></div>","""","""","""","""","""","""","""","""","2021-12-31 03:31:15",172.58.27.74,"Mozilla/5.0 (Windows NT 6.1; Win64; x64; rv:68.0) Gecko/20100101 Goanna/4.8 Firefox/68.0 PaleMoon/29.4.1",,Firefox,68.0,Windows,6.1,ac0f2dffeffaa78d35a552e03d03f0a8
15,2,"""",test_procedure,stim_test,canvas-button-response,50,220202,0.0-11.0-0.0-1.3,3PKVGQTFJQLSZOM7OKJDU84QFXXYRA,A20ASMCESA51U4,31LM9EDVOUTKCLW9ZF6VZLGG4H2JN3,V9L14,V9L14,31LM9EDVOUTKCLW9ZF6VZLGG4H2JN3,31LM9EDVOUTKCLW9ZF6VZLGG4H2JN3,338054,338054,2,0.04,"""",1612,0,catchStim2,0,Counter-clockwise,true,"""",0.01,120,0.6,"""","2021-12-31 03:31:15",172.58.27.74,"Mozilla/5.0 (Windows NT 6.1; Win64; x64; rv:68.0) Gecko/20100101 Goanna/4.8 Firefox/68.0 PaleMoon/29.4.1",,Firefox,68.0,Windows,6.1,ac0f2dffeffaa78d35a552e03d03f0a8
15,2,"""",test_procedure,confidence_rating,html-slider-response,51,224090,0.0-11.0-0.0-2.3,3PKVGQTFJQLSZOM7OKJDU84QFXXYRA,A20ASMCESA51U4,31LM9EDVOUTKCLW9ZF6VZLGG4H2JN3,V9L14,V9L14,31LM9EDVOUTKCLW9ZF6VZLGG4H2JN3,31LM9EDVOUTKCLW9ZF6VZLGG4H2JN3,338054,338054,2,0.04,"""",3884,99,"<div id=""message-div""><p>How confident are you that your clockwise/counter-clockwise response just now was accurate? Please rate your confidence on the slider bar below.</p></div>","""","""","""",50,"""","""","""",99,"2021-12-31 03:31:15",172.58.27.74,"Mozilla/5.0 (Windows NT 6.1; Win64; x64; rv:68.0) Gecko/20100101 Goanna/4.8 Firefox/68.0 PaleMoon/29.4.1",,Firefox,68.0,Windows,6.1,ac0f2dffeffaa78d35a552e03d03f0a8
15,2,"""",test_procedure,fixation,html-keyboard-response,52,224604,0.0-11.0-0.0-0.4,3PKVGQTFJQLSZOM7OKJDU84QFXXYRA,A20ASMCESA51U4,31LM9EDVOUTKCLW9ZF6VZLGG4H2JN3,V9L14,V9L14,31LM9EDVOUTKCLW9ZF6VZLGG4H2JN3,31LM9EDVOUTKCLW9ZF6VZLGG4H2JN3,338054,338054,2,0.04,"""",null,null,"<div class = fixationbox><div class = fixation>+</div></div>","""","""","""","""","""","""","""","""","2021-12-31 03:31:15",172.58.27.74,"Mozilla/5.0 (Windows NT 6.1; Win64; x64; rv:68.0) Gecko/20100101 Goanna/4.8 Firefox/68.0 PaleMoon/29.4.1",,Firefox,68.0,Windows,6.1,ac0f2dffeffaa78d35a552e03d03f0a8
15,2,"""",test_procedure,stim_test,canvas-button-response,53,226322,0.0-11.0-0.0-1.4,3PKVGQTFJQLSZOM7OKJDU84QFXXYRA,A20ASMCESA51U4,31LM9EDVOUTKCLW9ZF6VZLGG4H2JN3,V9L14,V9L14,31LM9EDVOUTKCLW9ZF6VZLGG4H2JN3,31LM9EDVOUTKCLW9ZF6VZLGG4H2JN3,338054,338054,2,0.04,"""",1650,1,stim4,0,Counter-clockwise,false,"""",0.3,120,"""","""","2021-12-31 03:31:15",172.58.27.74,"Mozilla/5.0 (Windows NT 6.1; Win64; x64; rv:68.0) Gecko/20100101 Goanna/4.8 Firefox/68.0 PaleMoon/29.4.1",,Firefox,68.0,Windows,6.1,ac0f2dffeffaa78d35a552e03d03f0a8
15,2,"""",test_procedure,confidence_rating,html-slider-response,54,231634,0.0-11.0-0.0-2.4,3PKVGQTFJQLSZOM7OKJDU84QFXXYRA,A20ASMCESA51U4,31LM9EDVOUTKCLW9ZF6VZLGG4H2JN3,V9L14,V9L14,31LM9EDVOUTKCLW9ZF6VZLGG4H2JN3,31LM9EDVOUTKCLW9ZF6VZLGG4H2JN3,338054,338054,2,0.04,"""",5306,34,"<div id=""message-div""><p>How confident are you that your clockwise/counter-clockwise response just now was accurate? Please rate your confidence on the slider bar below.</p></div>","""","""","""",50,"""","""","""",34,"2021-12-31 03:31:15",172.58.27.74,"Mozilla/5.0 (Windows NT 6.1; Win64; x64; rv:68.0) Gecko/20100101 Goanna/4.8 Firefox/68.0 PaleMoon/29.4.1",,Firefox,68.0,Windows,6.1,ac0f2dffeffaa78d35a552e03d03f0a8
15,2,"""",test_procedure,fixation,html-keyboard-response,55,232156,0.0-11.0-0.0-0.5,3PKVGQTFJQLSZOM7OKJDU84QFXXYRA,A20ASMCESA51U4,31LM9EDVOUTKCLW9ZF6VZLGG4H2JN3,V9L14,V9L14,31LM9EDVOUTKCLW9ZF6VZLGG4H2JN3,31LM9EDVOUTKCLW9ZF6VZLGG4H2JN3,338054,338054,2,0.04,"""",null,null,"<div class = fixationbox><div class = fixation>+</div></div>","""","""","""","""","""","""","""","""","2021-12-31 03:31:15",172.58.27.74,"Mozilla/5.0 (Windows NT 6.1; Win64; x64; rv:68.0) Gecko/20100101 Goanna/4.8 Firefox/68.0 PaleMoon/29.4.1",,Firefox,68.0,Windows,6.1,ac0f2dffeffaa78d35a552e03d03f0a8
15,2,"""",test_procedure,stim_test,canvas-button-response,56,234650,0.0-11.0-0.0-1.5,3PKVGQTFJQLSZOM7OKJDU84QFXXYRA,A20ASMCESA51U4,31LM9EDVOUTKCLW9ZF6VZLGG4H2JN3,V9L14,V9L14,31LM9EDVOUTKCLW9ZF6VZLGG4H2JN3,31LM9EDVOUTKCLW9ZF6VZLGG4H2JN3,338054,338054,2,0.04,"""",2426,0,stim4,0,Counter-clockwise,true,"""",0.3,120,"""","""","2021-12-31 03:31:15",172.58.27.74,"Mozilla/5.0 (Windows NT 6.1; Win64; x64; rv:68.0) Gecko/20100101 Goanna/4.8 Firefox/68.0 PaleMoon/29.4.1",,Firefox,68.0,Windows,6.1,ac0f2dffeffaa78d35a552e03d03f0a8
15,2,"""",test_procedure,confidence_rating,html-slider-response,57,237234,0.0-11.0-0.0-2.5,3PKVGQTFJQLSZOM7OKJDU84QFXXYRA,A20ASMCESA51U4,31LM9EDVOUTKCLW9ZF6VZLGG4H2JN3,V9L14,V9L14,31LM9EDVOUTKCLW9ZF6VZLGG4H2JN3,31LM9EDVOUTKCLW9ZF6VZLGG4H2JN3,338054,338054,2,0.04,"""",2580,25,"<div id=""message-div""><p>How confident are you that your clockwise/counter-clockwise response just now was accurate? Please rate your confidence on the slider bar below.</p></div>","""","""","""",50,"""","""","""",25,"2021-12-31 03:31:15",172.58.27.74,"Mozilla/5.0 (Windows NT 6.1; Win64; x64; rv:68.0) Gecko/20100101 Goanna/4.8 Firefox/68.0 PaleMoon/29.4.1",,Firefox,68.0,Windows,6.1,ac0f2dffeffaa78d35a552e03d03f0a8
15,2,"""",test_procedure,fixation,html-keyboard-response,58,237738,0.0-11.0-0.0-0.6,3PKVGQTFJQLSZOM7OKJDU84QFXXYRA,A20ASMCESA51U4,31LM9EDVOUTKCLW9ZF6VZLGG4H2JN3,V9L14,V9L14,31LM9EDVOUTKCLW9ZF6VZLGG4H2JN3,31LM9EDVOUTKCLW9ZF6VZLGG4H2JN3,338054,338054,2,0.04,"""",null,null,"<div class = fixationbox><div class = fixation>+</div></div>","""","""","""","""","""","""","""","""","2021-12-31 03:31:15",172.58.27.74,"Mozilla/5.0 (Windows NT 6.1; Win64; x64; rv:68.0) Gecko/20100101 Goanna/4.8 Firefox/68.0 PaleMoon/29.4.1",,Firefox,68.0,Windows,6.1,ac0f2dffeffaa78d35a552e03d03f0a8
15,2,"""",test_procedure,stim_test,canvas-button-response,59,239250,0.0-11.0-0.0-1.6,3PKVGQTFJQLSZOM7OKJDU84QFXXYRA,A20ASMCESA51U4,31LM9EDVOUTKCLW9ZF6VZLGG4H2JN3,V9L14,V9L14,31LM9EDVOUTKCLW9ZF6VZLGG4H2JN3,31LM9EDVOUTKCLW9ZF6VZLGG4H2JN3,338054,338054,2,0.04,"""",1446,0,stim2,0,Counter-clockwise,true,"""",0.01,120,"""","""","2021-12-31 03:31:15",172.58.27.74,"Mozilla/5.0 (Windows NT 6.1; Win64; x64; rv:68.0) Gecko/20100101 Goanna/4.8 Firefox/68.0 PaleMoon/29.4.1",,Firefox,68.0,Windows,6.1,ac0f2dffeffaa78d35a552e03d03f0a8
15,2,"""",test_procedure,confidence_rating,html-slider-response,60,243602,0.0-11.0-0.0-2.6,3PKVGQTFJQLSZOM7OKJDU84QFXXYRA,A20ASMCESA51U4,31LM9EDVOUTKCLW9ZF6VZLGG4H2JN3,V9L14,V9L14,31LM9EDVOUTKCLW9ZF6VZLGG4H2JN3,31LM9EDVOUTKCLW9ZF6VZLGG4H2JN3,338054,338054,2,0.04,"""",4338,45,"<div id=""message-div""><p>How confident are you that your clockwise/counter-clockwise response just now was accurate? Please rate your confidence on the slider bar below.</p></div>","""","""","""",50,"""","""","""",45,"2021-12-31 03:31:15",172.58.27.74,"Mozilla/5.0 (Windows NT 6.1; Win64; x64; rv:68.0) Gecko/20100101 Goanna/4.8 Firefox/68.0 PaleMoon/29.4.1",,Firefox,68.0,Windows,6.1,ac0f2dffeffaa78d35a552e03d03f0a8
15,2,"""",test_procedure,fixation,html-keyboard-response,61,244106,0.0-11.0-0.0-0.7,3PKVGQTFJQLSZOM7OKJDU84QFXXYRA,A20ASMCESA51U4,31LM9EDVOUTKCLW9ZF6VZLGG4H2JN3,V9L14,V9L14,31LM9EDVOUTKCLW9ZF6VZLGG4H2JN3,31LM9EDVOUTKCLW9ZF6VZLGG4H2JN3,338054,338054,2,0.04,"""",null,null,"<div class = fixationbox><div class = fixation>+</div></div>","""","""","""","""","""","""","""","""","2021-12-31 03:31:15",172.58.27.74,"Mozilla/5.0 (Windows NT 6.1; Win64; x64; rv:68.0) Gecko/20100101 Goanna/4.8 Firefox/68.0 PaleMoon/29.4.1",,Firefox,68.0,Windows,6.1,ac0f2dffeffaa78d35a552e03d03f0a8
15,2,"""",test_procedure,stim_test,canvas-button-response,62,245458,0.0-11.0-0.0-1.7,3PKVGQTFJQLSZOM7OKJDU84QFXXYRA,A20ASMCESA51U4,31LM9EDVOUTKCLW9ZF6VZLGG4H2JN3,V9L14,V9L14,31LM9EDVOUTKCLW9ZF6VZLGG4H2JN3,31LM9EDVOUTKCLW9ZF6VZLGG4H2JN3,338054,338054,2,0.04,"""",1288,1,stim4,0,Counter-clockwise,false,"""",0.3,120,"""","""","2021-12-31 03:31:15",172.58.27.74,"Mozilla/5.0 (Windows NT 6.1; Win64; x64; rv:68.0) Gecko/20100101 Goanna/4.8 Firefox/68.0 PaleMoon/29.4.1",,Firefox,68.0,Windows,6.1,ac0f2dffeffaa78d35a552e03d03f0a8
15,2,"""",test_procedure,confidence_rating,html-slider-response,63,247802,0.0-11.0-0.0-2.7,3PKVGQTFJQLSZOM7OKJDU84QFXXYRA,A20ASMCESA51U4,31LM9EDVOUTKCLW9ZF6VZLGG4H2JN3,V9L14,V9L14,31LM9EDVOUTKCLW9ZF6VZLGG4H2JN3,31LM9EDVOUTKCLW9ZF6VZLGG4H2JN3,338054,338054,2,0.04,"""",2340,75,"<div id=""message-div""><p>How confident are you that your clockwise/counter-clockwise response just now was accurate? Please rate your confidence on the slider bar below.</p></div>","""","""","""",50,"""","""","""",75,"2021-12-31 03:31:15",172.58.27.74,"Mozilla/5.0 (Windows NT 6.1; Win64; x64; rv:68.0) Gecko/20100101 Goanna/4.8 Firefox/68.0 PaleMoon/29.4.1",,Firefox,68.0,Windows,6.1,ac0f2dffeffaa78d35a552e03d03f0a8
15,2,"""",test_procedure,fixation,html-keyboard-response,64,248320,0.0-11.0-0.0-0.8,3PKVGQTFJQLSZOM7OKJDU84QFXXYRA,A20ASMCESA51U4,31LM9EDVOUTKCLW9ZF6VZLGG4H2JN3,V9L14,V9L14,31LM9EDVOUTKCLW9ZF6VZLGG4H2JN3,31LM9EDVOUTKCLW9ZF6VZLGG4H2JN3,338054,338054,2,0.04,"""",null,null,"<div class = fixationbox><div class = fixation>+</div></div>","""","""","""","""","""","""","""","""","2021-12-31 03:31:15",172.58.27.74,"Mozilla/5.0 (Windows NT 6.1; Win64; x64; rv:68.0) Gecko/20100101 Goanna/4.8 Firefox/68.0 PaleMoon/29.4.1",,Firefox,68.0,Windows,6.1,ac0f2dffeffaa78d35a552e03d03f0a8
15,2,"""",test_procedure,stim_test,canvas-button-response,65,249722,0.0-11.0-0.0-1.8,3PKVGQTFJQLSZOM7OKJDU84QFXXYRA,A20ASMCESA51U4,31LM9EDVOUTKCLW9ZF6VZLGG4H2JN3,V9L14,V9L14,31LM9EDVOUTKCLW9ZF6VZLGG4H2JN3,31LM9EDVOUTKCLW9ZF6VZLGG4H2JN3,338054,338054,2,0.04,"""",1338,1,stim3,1,Clockwise,true,"""",0.3,60,"""","""","2021-12-31 03:31:15",172.58.27.74,"Mozilla/5.0 (Windows NT 6.1; Win64; x64; rv:68.0) Gecko/20100101 Goanna/4.8 Firefox/68.0 PaleMoon/29.4.1",,Firefox,68.0,Windows,6.1,ac0f2dffeffaa78d35a552e03d03f0a8
15,2,"""",test_procedure,confidence_rating,html-slider-response,66,253762,0.0-11.0-0.0-2.8,3PKVGQTFJQLSZOM7OKJDU84QFXXYRA,A20ASMCESA51U4,31LM9EDVOUTKCLW9ZF6VZLGG4H2JN3,V9L14,V9L14,31LM9EDVOUTKCLW9ZF6VZLGG4H2JN3,31LM9EDVOUTKCLW9ZF6VZLGG4H2JN3,338054,338054,2,0.04,"""",4036,66,"<div id=""message-div""><p>How confident are you that your clockwise/counter-clockwise response just now was accurate? Please rate your confidence on the slider bar below.</p></div>","""","""","""",50,"""","""","""",66,"2021-12-31 03:31:15",172.58.27.74,"Mozilla/5.0 (Windows NT 6.1; Win64; x64; rv:68.0) Gecko/20100101 Goanna/4.8 Firefox/68.0 PaleMoon/29.4.1",,Firefox,68.0,Windows,6.1,ac0f2dffeffaa78d35a552e03d03f0a8
15,2,"""",test_procedure,fixation,html-keyboard-response,67,254266,0.0-11.0-0.0-0.9,3PKVGQTFJQLSZOM7OKJDU84QFXXYRA,A20ASMCESA51U4,31LM9EDVOUTKCLW9ZF6VZLGG4H2JN3,V9L14,V9L14,31LM9EDVOUTKCLW9ZF6VZLGG4H2JN3,31LM9EDVOUTKCLW9ZF6VZLGG4H2JN3,338054,338054,2,0.04,"""",null,null,"<div class = fixationbox><div class = fixation>+</div></div>","""","""","""","""","""","""","""","""","2021-12-31 03:31:15",172.58.27.74,"Mozilla/5.0 (Windows NT 6.1; Win64; x64; rv:68.0) Gecko/20100101 Goanna/4.8 Firefox/68.0 PaleMoon/29.4.1",,Firefox,68.0,Windows,6.1,ac0f2dffeffaa78d35a552e03d03f0a8
15,2,"""",test_procedure,stim_test,canvas-button-response,68,255754,0.0-11.0-0.0-1.9,3PKVGQTFJQLSZOM7OKJDU84QFXXYRA,A20ASMCESA51U4,31LM9EDVOUTKCLW9ZF6VZLGG4H2JN3,V9L14,V9L14,31LM9EDVOUTKCLW9ZF6VZLGG4H2JN3,31LM9EDVOUTKCLW9ZF6VZLGG4H2JN3,338054,338054,2,0.04,"""",1426,1,stim1,1,Clockwise,true,"""",0.01,60,"""","""","2021-12-31 03:31:15",172.58.27.74,"Mozilla/5.0 (Windows NT 6.1; Win64; x64; rv:68.0) Gecko/20100101 Goanna/4.8 Firefox/68.0 PaleMoon/29.4.1",,Firefox,68.0,Windows,6.1,ac0f2dffeffaa78d35a552e03d03f0a8
15,2,"""",test_procedure,confidence_rating,html-slider-response,69,257730,0.0-11.0-0.0-2.9,3PKVGQTFJQLSZOM7OKJDU84QFXXYRA,A20ASMCESA51U4,31LM9EDVOUTKCLW9ZF6VZLGG4H2JN3,V9L14,V9L14,31LM9EDVOUTKCLW9ZF6VZLGG4H2JN3,31LM9EDVOUTKCLW9ZF6VZLGG4H2JN3,338054,338054,2,0.04,"""",1960,72,"<div id=""message-div""><p>How confident are you that your clockwise/counter-clockwise response just now was accurate? Please rate your confidence on the slider bar below.</p></div>","""","""","""",50,"""","""","""",72,"2021-12-31 03:31:15",172.58.27.74,"Mozilla/5.0 (Windows NT 6.1; Win64; x64; rv:68.0) Gecko/20100101 Goanna/4.8 Firefox/68.0 PaleMoon/29.4.1",,Firefox,68.0,Windows,6.1,ac0f2dffeffaa78d35a552e03d03f0a8
15,2,"""",test_procedure,fixation,html-keyboard-response,70,258234,0.0-11.0-0.0-0.10,3PKVGQTFJQLSZOM7OKJDU84QFXXYRA,A20ASMCESA51U4,31LM9EDVOUTKCLW9ZF6VZLGG4H2JN3,V9L14,V9L14,31LM9EDVOUTKCLW9ZF6VZLGG4H2JN3,31LM9EDVOUTKCLW9ZF6VZLGG4H2JN3,338054,338054,2,0.04,"""",null,null,"<div class = fixationbox><div class = fixation>+</div></div>","""","""","""","""","""","""","""","""","2021-12-31 03:31:15",172.58.27.74,"Mozilla/5.0 (Windows NT 6.1; Win64; x64; rv:68.0) Gecko/20100101 Goanna/4.8 Firefox/68.0 PaleMoon/29.4.1",,Firefox,68.0,Windows,6.1,ac0f2dffeffaa78d35a552e03d03f0a8
15,2,"""",test_procedure,stim_test,canvas-button-response,71,260082,0.0-11.0-0.0-1.10,3PKVGQTFJQLSZOM7OKJDU84QFXXYRA,A20ASMCESA51U4,31LM9EDVOUTKCLW9ZF6VZLGG4H2JN3,V9L14,V9L14,31LM9EDVOUTKCLW9ZF6VZLGG4H2JN3,31LM9EDVOUTKCLW9ZF6VZLGG4H2JN3,338054,338054,2,0.04,"""",1784,1,stim2,0,Counter-clockwise,false,"""",0.01,120,"""","""","2021-12-31 03:31:15",172.58.27.74,"Mozilla/5.0 (Windows NT 6.1; Win64; x64; rv:68.0) Gecko/20100101 Goanna/4.8 Firefox/68.0 PaleMoon/29.4.1",,Firefox,68.0,Windows,6.1,ac0f2dffeffaa78d35a552e03d03f0a8
15,2,"""",test_procedure,confidence_rating,html-slider-response,72,266770,0.0-11.0-0.0-2.10,3PKVGQTFJQLSZOM7OKJDU84QFXXYRA,A20ASMCESA51U4,31LM9EDVOUTKCLW9ZF6VZLGG4H2JN3,V9L14,V9L14,31LM9EDVOUTKCLW9ZF6VZLGG4H2JN3,31LM9EDVOUTKCLW9ZF6VZLGG4H2JN3,338054,338054,2,0.04,"""",6684,29,"<div id=""message-div""><p>How confident are you that your clockwise/counter-clockwise response just now was accurate? Please rate your confidence on the slider bar below.</p></div>","""","""","""",50,"""","""","""",29,"2021-12-31 03:31:15",172.58.27.74,"Mozilla/5.0 (Windows NT 6.1; Win64; x64; rv:68.0) Gecko/20100101 Goanna/4.8 Firefox/68.0 PaleMoon/29.4.1",,Firefox,68.0,Windows,6.1,ac0f2dffeffaa78d35a552e03d03f0a8
15,2,"""",test_procedure,fixation,html-keyboard-response,73,267288,0.0-11.0-0.0-0.11,3PKVGQTFJQLSZOM7OKJDU84QFXXYRA,A20ASMCESA51U4,31LM9EDVOUTKCLW9ZF6VZLGG4H2JN3,V9L14,V9L14,31LM9EDVOUTKCLW9ZF6VZLGG4H2JN3,31LM9EDVOUTKCLW9ZF6VZLGG4H2JN3,338054,338054,2,0.04,"""",null,null,"<div class = fixationbox><div class = fixation>+</div></div>","""","""","""","""","""","""","""","""","2021-12-31 03:31:15",172.58.27.74,"Mozilla/5.0 (Windows NT 6.1; Win64; x64; rv:68.0) Gecko/20100101 Goanna/4.8 Firefox/68.0 PaleMoon/29.4.1",,Firefox,68.0,Windows,6.1,ac0f2dffeffaa78d35a552e03d03f0a8
15,2,"""",test_procedure,stim_test,canvas-button-response,74,268706,0.0-11.0-0.0-1.11,3PKVGQTFJQLSZOM7OKJDU84QFXXYRA,A20ASMCESA51U4,31LM9EDVOUTKCLW9ZF6VZLGG4H2JN3,V9L14,V9L14,31LM9EDVOUTKCLW9ZF6VZLGG4H2JN3,31LM9EDVOUTKCLW9ZF6VZLGG4H2JN3,338054,338054,2,0.04,"""",1354,0,stim1,1,Clockwise,false,"""",0.01,60,"""","""","2021-12-31 03:31:15",172.58.27.74,"Mozilla/5.0 (Windows NT 6.1; Win64; x64; rv:68.0) Gecko/20100101 Goanna/4.8 Firefox/68.0 PaleMoon/29.4.1",,Firefox,68.0,Windows,6.1,ac0f2dffeffaa78d35a552e03d03f0a8
15,2,"""",test_procedure,confidence_rating,html-slider-response,75,271818,0.0-11.0-0.0-2.11,3PKVGQTFJQLSZOM7OKJDU84QFXXYRA,A20ASMCESA51U4,31LM9EDVOUTKCLW9ZF6VZLGG4H2JN3,V9L14,V9L14,31LM9EDVOUTKCLW9ZF6VZLGG4H2JN3,31LM9EDVOUTKCLW9ZF6VZLGG4H2JN3,338054,338054,2,0.04,"""",3110,26,"<div id=""message-div""><p>How confident are you that your clockwise/counter-clockwise response just now was accurate? Please rate your confidence on the slider bar below.</p></div>","""","""","""",50,"""","""","""",26,"2021-12-31 03:31:15",172.58.27.74,"Mozilla/5.0 (Windows NT 6.1; Win64; x64; rv:68.0) Gecko/20100101 Goanna/4.8 Firefox/68.0 PaleMoon/29.4.1",,Firefox,68.0,Windows,6.1,ac0f2dffeffaa78d35a552e03d03f0a8
15,2,"""",test_procedure,fixation,html-keyboard-response,76,272322,0.0-11.0-0.0-0.12,3PKVGQTFJQLSZOM7OKJDU84QFXXYRA,A20ASMCESA51U4,31LM9EDVOUTKCLW9ZF6VZLGG4H2JN3,V9L14,V9L14,31LM9EDVOUTKCLW9ZF6VZLGG4H2JN3,31LM9EDVOUTKCLW9ZF6VZLGG4H2JN3,338054,338054,2,0.04,"""",null,null,"<div class = fixationbox><div class = fixation>+</div></div>","""","""","""","""","""","""","""","""","2021-12-31 03:31:15",172.58.27.74,"Mozilla/5.0 (Windows NT 6.1; Win64; x64; rv:68.0) Gecko/20100101 Goanna/4.8 Firefox/68.0 PaleMoon/29.4.1",,Firefox,68.0,Windows,6.1,ac0f2dffeffaa78d35a552e03d03f0a8
15,2,"""",test_procedure,stim_test,canvas-button-response,77,273602,0.0-11.0-0.0-1.12,3PKVGQTFJQLSZOM7OKJDU84QFXXYRA,A20ASMCESA51U4,31LM9EDVOUTKCLW9ZF6VZLGG4H2JN3,V9L14,V9L14,31LM9EDVOUTKCLW9ZF6VZLGG4H2JN3,31LM9EDVOUTKCLW9ZF6VZLGG4H2JN3,338054,338054,2,0.04,"""",1218,1,catchStim1,1,Clockwise,true,"""",0.01,60,0.6,"""","2021-12-31 03:31:15",172.58.27.74,"Mozilla/5.0 (Windows NT 6.1; Win64; x64; rv:68.0) Gecko/20100101 Goanna/4.8 Firefox/68.0 PaleMoon/29.4.1",,Firefox,68.0,Windows,6.1,ac0f2dffeffaa78d35a552e03d03f0a8
15,2,"""",test_procedure,confidence_rating,html-slider-response,78,276522,0.0-11.0-0.0-2.12,3PKVGQTFJQLSZOM7OKJDU84QFXXYRA,A20ASMCESA51U4,31LM9EDVOUTKCLW9ZF6VZLGG4H2JN3,V9L14,V9L14,31LM9EDVOUTKCLW9ZF6VZLGG4H2JN3,31LM9EDVOUTKCLW9ZF6VZLGG4H2JN3,338054,338054,2,0.04,"""",2868,99,"<div id=""message-div""><p>How confident are you that your clockwise/counter-clockwise response just now was accurate? Please rate your confidence on the slider bar below.</p></div>","""","""","""",50,"""","""","""",99,"2021-12-31 03:31:15",172.58.27.74,"Mozilla/5.0 (Windows NT 6.1; Win64; x64; rv:68.0) Gecko/20100101 Goanna/4.8 Firefox/68.0 PaleMoon/29.4.1",,Firefox,68.0,Windows,6.1,ac0f2dffeffaa78d35a552e03d03f0a8
15,2,"""",test_procedure,fixation,html-keyboard-response,79,277030,0.0-11.0-0.0-0.13,3PKVGQTFJQLSZOM7OKJDU84QFXXYRA,A20ASMCESA51U4,31LM9EDVOUTKCLW9ZF6VZLGG4H2JN3,V9L14,V9L14,31LM9EDVOUTKCLW9ZF6VZLGG4H2JN3,31LM9EDVOUTKCLW9ZF6VZLGG4H2JN3,338054,338054,2,0.04,"""",null,null,"<div class = fixationbox><div class = fixation>+</div></div>","""","""","""","""","""","""","""","""","2021-12-31 03:31:15",172.58.27.74,"Mozilla/5.0 (Windows NT 6.1; Win64; x64; rv:68.0) Gecko/20100101 Goanna/4.8 Firefox/68.0 PaleMoon/29.4.1",,Firefox,68.0,Windows,6.1,ac0f2dffeffaa78d35a552e03d03f0a8
15,2,"""",test_procedure,stim_test,canvas-button-response,80,278810,0.0-11.0-0.0-1.13,3PKVGQTFJQLSZOM7OKJDU84QFXXYRA,A20ASMCESA51U4,31LM9EDVOUTKCLW9ZF6VZLGG4H2JN3,V9L14,V9L14,31LM9EDVOUTKCLW9ZF6VZLGG4H2JN3,31LM9EDVOUTKCLW9ZF6VZLGG4H2JN3,338054,338054,2,0.04,"""",1678,1,stim4,0,Counter-clockwise,false,"""",0.3,120,"""","""","2021-12-31 03:31:15",172.58.27.74,"Mozilla/5.0 (Windows NT 6.1; Win64; x64; rv:68.0) Gecko/20100101 Goanna/4.8 Firefox/68.0 PaleMoon/29.4.1",,Firefox,68.0,Windows,6.1,ac0f2dffeffaa78d35a552e03d03f0a8
15,2,"""",test_procedure,confidence_rating,html-slider-response,81,281042,0.0-11.0-0.0-2.13,3PKVGQTFJQLSZOM7OKJDU84QFXXYRA,A20ASMCESA51U4,31LM9EDVOUTKCLW9ZF6VZLGG4H2JN3,V9L14,V9L14,31LM9EDVOUTKCLW9ZF6VZLGG4H2JN3,31LM9EDVOUTKCLW9ZF6VZLGG4H2JN3,338054,338054,2,0.04,"""",2224,50,"<div id=""message-div""><p>How confident are you that your clockwise/counter-clockwise response just now was accurate? Please rate your confidence on the slider bar below.</p></div>","""","""","""",50,"""","""","""",50,"2021-12-31 03:31:15",172.58.27.74,"Mozilla/5.0 (Windows NT 6.1; Win64; x64; rv:68.0) Gecko/20100101 Goanna/4.8 Firefox/68.0 PaleMoon/29.4.1",,Firefox,68.0,Windows,6.1,ac0f2dffeffaa78d35a552e03d03f0a8
15,2,"""",test_procedure,fixation,html-keyboard-response,82,281606,0.0-11.0-0.0-0.14,3PKVGQTFJQLSZOM7OKJDU84QFXXYRA,A20ASMCESA51U4,31LM9EDVOUTKCLW9ZF6VZLGG4H2JN3,V9L14,V9L14,31LM9EDVOUTKCLW9ZF6VZLGG4H2JN3,31LM9EDVOUTKCLW9ZF6VZLGG4H2JN3,338054,338054,2,0.04,"""",null,null,"<div class = fixationbox><div class = fixation>+</div></div>","""","""","""","""","""","""","""","""","2021-12-31 03:31:15",172.58.27.74,"Mozilla/5.0 (Windows NT 6.1; Win64; x64; rv:68.0) Gecko/20100101 Goanna/4.8 Firefox/68.0 PaleMoon/29.4.1",,Firefox,68.0,Windows,6.1,ac0f2dffeffaa78d35a552e03d03f0a8
15,2,"""",test_procedure,stim_test,canvas-button-response,83,283242,0.0-11.0-0.0-1.14,3PKVGQTFJQLSZOM7OKJDU84QFXXYRA,A20ASMCESA51U4,31LM9EDVOUTKCLW9ZF6VZLGG4H2JN3,V9L14,V9L14,31LM9EDVOUTKCLW9ZF6VZLGG4H2JN3,31LM9EDVOUTKCLW9ZF6VZLGG4H2JN3,338054,338054,2,0.04,"""",1536,1,catchStim3,1,Clockwise,true,"""",0.01,60,0.001,"""","2021-12-31 03:31:15",172.58.27.74,"Mozilla/5.0 (Windows NT 6.1; Win64; x64; rv:68.0) Gecko/20100101 Goanna/4.8 Firefox/68.0 PaleMoon/29.4.1",,Firefox,68.0,Windows,6.1,ac0f2dffeffaa78d35a552e03d03f0a8
15,2,"""",test_procedure,confidence_rating,html-slider-response,84,285978,0.0-11.0-0.0-2.14,3PKVGQTFJQLSZOM7OKJDU84QFXXYRA,A20ASMCESA51U4,31LM9EDVOUTKCLW9ZF6VZLGG4H2JN3,V9L14,V9L14,31LM9EDVOUTKCLW9ZF6VZLGG4H2JN3,31LM9EDVOUTKCLW9ZF6VZLGG4H2JN3,338054,338054,2,0.04,"""",2730,85,"<div id=""message-div""><p>How confident are you that your clockwise/counter-clockwise response just now was accurate? Please rate your confidence on the slider bar below.</p></div>","""","""","""",50,"""","""","""",85,"2021-12-31 03:31:15",172.58.27.74,"Mozilla/5.0 (Windows NT 6.1; Win64; x64; rv:68.0) Gecko/20100101 Goanna/4.8 Firefox/68.0 PaleMoon/29.4.1",,Firefox,68.0,Windows,6.1,ac0f2dffeffaa78d35a552e03d03f0a8
15,2,"""",test_procedure,fixation,html-keyboard-response,85,286482,0.0-11.0-0.0-0.15,3PKVGQTFJQLSZOM7OKJDU84QFXXYRA,A20ASMCESA51U4,31LM9EDVOUTKCLW9ZF6VZLGG4H2JN3,V9L14,V9L14,31LM9EDVOUTKCLW9ZF6VZLGG4H2JN3,31LM9EDVOUTKCLW9ZF6VZLGG4H2JN3,338054,338054,2,0.04,"""",null,null,"<div class = fixationbox><div class = fixation>+</div></div>","""","""","""","""","""","""","""","""","2021-12-31 03:31:15",172.58.27.74,"Mozilla/5.0 (Windows NT 6.1; Win64; x64; rv:68.0) Gecko/20100101 Goanna/4.8 Firefox/68.0 PaleMoon/29.4.1",,Firefox,68.0,Windows,6.1,ac0f2dffeffaa78d35a552e03d03f0a8
15,2,"""",test_procedure,stim_test,canvas-button-response,86,287800,0.0-11.0-0.0-1.15,3PKVGQTFJQLSZOM7OKJDU84QFXXYRA,A20ASMCESA51U4,31LM9EDVOUTKCLW9ZF6VZLGG4H2JN3,V9L14,V9L14,31LM9EDVOUTKCLW9ZF6VZLGG4H2JN3,31LM9EDVOUTKCLW9ZF6VZLGG4H2JN3,338054,338054,2,0.04,"""",1242,1,catchStim5,1,Clockwise,true,"""",0.3,60,0.6,"""","2021-12-31 03:31:15",172.58.27.74,"Mozilla/5.0 (Windows NT 6.1; Win64; x64; rv:68.0) Gecko/20100101 Goanna/4.8 Firefox/68.0 PaleMoon/29.4.1",,Firefox,68.0,Windows,6.1,ac0f2dffeffaa78d35a552e03d03f0a8
15,2,"""",test_procedure,confidence_rating,html-slider-response,87,294248,0.0-11.0-0.0-2.15,3PKVGQTFJQLSZOM7OKJDU84QFXXYRA,A20ASMCESA51U4,31LM9EDVOUTKCLW9ZF6VZLGG4H2JN3,V9L14,V9L14,31LM9EDVOUTKCLW9ZF6VZLGG4H2JN3,31LM9EDVOUTKCLW9ZF6VZLGG4H2JN3,338054,338054,2,0.04,"""",6424,100,"<div id=""message-div""><p>How confident are you that your clockwise/counter-clockwise response just now was accurate? Please rate your confidence on the slider bar below.</p></div>","""","""","""",50,"""","""","""",100,"2021-12-31 03:31:15",172.58.27.74,"Mozilla/5.0 (Windows NT 6.1; Win64; x64; rv:68.0) Gecko/20100101 Goanna/4.8 Firefox/68.0 PaleMoon/29.4.1",,Firefox,68.0,Windows,6.1,ac0f2dffeffaa78d35a552e03d03f0a8
15,2,"""",test_procedure,fixation,html-keyboard-response,88,294754,0.0-11.0-0.0-0.16,3PKVGQTFJQLSZOM7OKJDU84QFXXYRA,A20ASMCESA51U4,31LM9EDVOUTKCLW9ZF6VZLGG4H2JN3,V9L14,V9L14,31LM9EDVOUTKCLW9ZF6VZLGG4H2JN3,31LM9EDVOUTKCLW9ZF6VZLGG4H2JN3,338054,338054,2,0.04,"""",null,null,"<div class = fixationbox><div class = fixation>+</div></div>","""","""","""","""","""","""","""","""","2021-12-31 03:31:15",172.58.27.74,"Mozilla/5.0 (Windows NT 6.1; Win64; x64; rv:68.0) Gecko/20100101 Goanna/4.8 Firefox/68.0 PaleMoon/29.4.1",,Firefox,68.0,Windows,6.1,ac0f2dffeffaa78d35a552e03d03f0a8
15,2,"""",test_procedure,stim_test,canvas-button-response,89,296322,0.0-11.0-0.0-1.16,3PKVGQTFJQLSZOM7OKJDU84QFXXYRA,A20ASMCESA51U4,31LM9EDVOUTKCLW9ZF6VZLGG4H2JN3,V9L14,V9L14,31LM9EDVOUTKCLW9ZF6VZLGG4H2JN3,31LM9EDVOUTKCLW9ZF6VZLGG4H2JN3,338054,338054,2,0.04,"""",1486,0,catchStim8,0,Counter-clockwise,true,"""",0.3,120,0.001,"""","2021-12-31 03:31:15",172.58.27.74,"Mozilla/5.0 (Windows NT 6.1; Win64; x64; rv:68.0) Gecko/20100101 Goanna/4.8 Firefox/68.0 PaleMoon/29.4.1",,Firefox,68.0,Windows,6.1,ac0f2dffeffaa78d35a552e03d03f0a8
15,2,"""",test_procedure,confidence_rating,html-slider-response,90,299976,0.0-11.0-0.0-2.16,3PKVGQTFJQLSZOM7OKJDU84QFXXYRA,A20ASMCESA51U4,31LM9EDVOUTKCLW9ZF6VZLGG4H2JN3,V9L14,V9L14,31LM9EDVOUTKCLW9ZF6VZLGG4H2JN3,31LM9EDVOUTKCLW9ZF6VZLGG4H2JN3,338054,338054,2,0.04,"""",3650,32,"<div id=""message-div""><p>How confident are you that your clockwise/counter-clockwise response just now was accurate? Please rate your confidence on the slider bar below.</p></div>","""","""","""",50,"""","""","""",32,"2021-12-31 03:31:15",172.58.27.74,"Mozilla/5.0 (Windows NT 6.1; Win64; x64; rv:68.0) Gecko/20100101 Goanna/4.8 Firefox/68.0 PaleMoon/29.4.1",,Firefox,68.0,Windows,6.1,ac0f2dffeffaa78d35a552e03d03f0a8
15,2,"""",test_procedure,fixation,html-keyboard-response,91,300482,0.0-11.0-0.0-0.17,3PKVGQTFJQLSZOM7OKJDU84QFXXYRA,A20ASMCESA51U4,31LM9EDVOUTKCLW9ZF6VZLGG4H2JN3,V9L14,V9L14,31LM9EDVOUTKCLW9ZF6VZLGG4H2JN3,31LM9EDVOUTKCLW9ZF6VZLGG4H2JN3,338054,338054,2,0.04,"""",null,null,"<div class = fixationbox><div class = fixation>+</div></div>","""","""","""","""","""","""","""","""","2021-12-31 03:31:15",172.58.27.74,"Mozilla/5.0 (Windows NT 6.1; Win64; x64; rv:68.0) Gecko/20100101 Goanna/4.8 Firefox/68.0 PaleMoon/29.4.1",,Firefox,68.0,Windows,6.1,ac0f2dffeffaa78d35a552e03d03f0a8
15,2,"""",test_procedure,stim_test,canvas-button-response,92,301784,0.0-11.0-0.0-1.17,3PKVGQTFJQLSZOM7OKJDU84QFXXYRA,A20ASMCESA51U4,31LM9EDVOUTKCLW9ZF6VZLGG4H2JN3,V9L14,V9L14,31LM9EDVOUTKCLW9ZF6VZLGG4H2JN3,31LM9EDVOUTKCLW9ZF6VZLGG4H2JN3,338054,338054,2,0.04,"""",1234,0,catchStim6,0,Counter-clockwise,true,"""",0.3,120,0.6,"""","2021-12-31 03:31:15",172.58.27.74,"Mozilla/5.0 (Windows NT 6.1; Win64; x64; rv:68.0) Gecko/20100101 Goanna/4.8 Firefox/68.0 PaleMoon/29.4.1",,Firefox,68.0,Windows,6.1,ac0f2dffeffaa78d35a552e03d03f0a8
15,2,"""",test_procedure,confidence_rating,html-slider-response,93,304856,0.0-11.0-0.0-2.17,3PKVGQTFJQLSZOM7OKJDU84QFXXYRA,A20ASMCESA51U4,31LM9EDVOUTKCLW9ZF6VZLGG4H2JN3,V9L14,V9L14,31LM9EDVOUTKCLW9ZF6VZLGG4H2JN3,31LM9EDVOUTKCLW9ZF6VZLGG4H2JN3,338054,338054,2,0.04,"""",3050,100,"<div id=""message-div""><p>How confident are you that your clockwise/counter-clockwise response just now was accurate? Please rate your confidence on the slider bar below.</p></div>","""","""","""",50,"""","""","""",100,"2021-12-31 03:31:15",172.58.27.74,"Mozilla/5.0 (Windows NT 6.1; Win64; x64; rv:68.0) Gecko/20100101 Goanna/4.8 Firefox/68.0 PaleMoon/29.4.1",,Firefox,68.0,Windows,6.1,ac0f2dffeffaa78d35a552e03d03f0a8
15,2,"""",test_procedure,fixation,html-keyboard-response,94,305366,0.0-11.0-0.0-0.18,3PKVGQTFJQLSZOM7OKJDU84QFXXYRA,A20ASMCESA51U4,31LM9EDVOUTKCLW9ZF6VZLGG4H2JN3,V9L14,V9L14,31LM9EDVOUTKCLW9ZF6VZLGG4H2JN3,31LM9EDVOUTKCLW9ZF6VZLGG4H2JN3,338054,338054,2,0.04,"""",null,null,"<div class = fixationbox><div class = fixation>+</div></div>","""","""","""","""","""","""","""","""","2021-12-31 03:31:15",172.58.27.74,"Mozilla/5.0 (Windows NT 6.1; Win64; x64; rv:68.0) Gecko/20100101 Goanna/4.8 Firefox/68.0 PaleMoon/29.4.1",,Firefox,68.0,Windows,6.1,ac0f2dffeffaa78d35a552e03d03f0a8
15,2,"""",test_procedure,stim_test,canvas-button-response,95,306898,0.0-11.0-0.0-1.18,3PKVGQTFJQLSZOM7OKJDU84QFXXYRA,A20ASMCESA51U4,31LM9EDVOUTKCLW9ZF6VZLGG4H2JN3,V9L14,V9L14,31LM9EDVOUTKCLW9ZF6VZLGG4H2JN3,31LM9EDVOUTKCLW9ZF6VZLGG4H2JN3,338054,338054,2,0.04,"""",1468,1,catchStim4,0,Counter-clockwise,false,"""",0.01,120,0.001,"""","2021-12-31 03:31:15",172.58.27.74,"Mozilla/5.0 (Windows NT 6.1; Win64; x64; rv:68.0) Gecko/20100101 Goanna/4.8 Firefox/68.0 PaleMoon/29.4.1",,Firefox,68.0,Windows,6.1,ac0f2dffeffaa78d35a552e03d03f0a8
15,2,"""",test_procedure,confidence_rating,html-slider-response,96,309912,0.0-11.0-0.0-2.18,3PKVGQTFJQLSZOM7OKJDU84QFXXYRA,A20ASMCESA51U4,31LM9EDVOUTKCLW9ZF6VZLGG4H2JN3,V9L14,V9L14,31LM9EDVOUTKCLW9ZF6VZLGG4H2JN3,31LM9EDVOUTKCLW9ZF6VZLGG4H2JN3,338054,338054,2,0.04,"""",3010,92,"<div id=""message-div""><p>How confident are you that your clockwise/counter-clockwise response just now was accurate? Please rate your confidence on the slider bar below.</p></div>","""","""","""",50,"""","""","""",92,"2021-12-31 03:31:15",172.58.27.74,"Mozilla/5.0 (Windows NT 6.1; Win64; x64; rv:68.0) Gecko/20100101 Goanna/4.8 Firefox/68.0 PaleMoon/29.4.1",,Firefox,68.0,Windows,6.1,ac0f2dffeffaa78d35a552e03d03f0a8
15,2,"""",test_procedure,fixation,html-keyboard-response,97,310432,0.0-11.0-0.0-0.19,3PKVGQTFJQLSZOM7OKJDU84QFXXYRA,A20ASMCESA51U4,31LM9EDVOUTKCLW9ZF6VZLGG4H2JN3,V9L14,V9L14,31LM9EDVOUTKCLW9ZF6VZLGG4H2JN3,31LM9EDVOUTKCLW9ZF6VZLGG4H2JN3,338054,338054,2,0.04,"""",null,null,"<div class = fixationbox><div class = fixation>+</div></div>","""","""","""","""","""","""","""","""","2021-12-31 03:31:15",172.58.27.74,"Mozilla/5.0 (Windows NT 6.1; Win64; x64; rv:68.0) Gecko/20100101 Goanna/4.8 Firefox/68.0 PaleMoon/29.4.1",,Firefox,68.0,Windows,6.1,ac0f2dffeffaa78d35a552e03d03f0a8
15,2,"""",test_procedure,stim_test,canvas-button-response,98,312064,0.0-11.0-0.0-1.19,3PKVGQTFJQLSZOM7OKJDU84QFXXYRA,A20ASMCESA51U4,31LM9EDVOUTKCLW9ZF6VZLGG4H2JN3,V9L14,V9L14,31LM9EDVOUTKCLW9ZF6VZLGG4H2JN3,31LM9EDVOUTKCLW9ZF6VZLGG4H2JN3,338054,338054,2,0.04,"""",1568,1,stim1,1,Clockwise,true,"""",0.01,60,"""","""","2021-12-31 03:31:15",172.58.27.74,"Mozilla/5.0 (Windows NT 6.1; Win64; x64; rv:68.0) Gecko/20100101 Goanna/4.8 Firefox/68.0 PaleMoon/29.4.1",,Firefox,68.0,Windows,6.1,ac0f2dffeffaa78d35a552e03d03f0a8
15,2,"""",test_procedure,confidence_rating,html-slider-response,99,314352,0.0-11.0-0.0-2.19,3PKVGQTFJQLSZOM7OKJDU84QFXXYRA,A20ASMCESA51U4,31LM9EDVOUTKCLW9ZF6VZLGG4H2JN3,V9L14,V9L14,31LM9EDVOUTKCLW9ZF6VZLGG4H2JN3,31LM9EDVOUTKCLW9ZF6VZLGG4H2JN3,338054,338054,2,0.04,"""",2284,87,"<div id=""message-div""><p>How confident are you that your clockwise/counter-clockwise response just now was accurate? Please rate your confidence on the slider bar below.</p></div>","""","""","""",50,"""","""","""",87,"2021-12-31 03:31:15",172.58.27.74,"Mozilla/5.0 (Windows NT 6.1; Win64; x64; rv:68.0) Gecko/20100101 Goanna/4.8 Firefox/68.0 PaleMoon/29.4.1",,Firefox,68.0,Windows,6.1,ac0f2dffeffaa78d35a552e03d03f0a8
15,2,"""",test_procedure,fixation,html-keyboard-response,100,314866,0.0-11.0-0.0-0.20,3PKVGQTFJQLSZOM7OKJDU84QFXXYRA,A20ASMCESA51U4,31LM9EDVOUTKCLW9ZF6VZLGG4H2JN3,V9L14,V9L14,31LM9EDVOUTKCLW9ZF6VZLGG4H2JN3,31LM9EDVOUTKCLW9ZF6VZLGG4H2JN3,338054,338054,2,0.04,"""",null,null,"<div class = fixationbox><div class = fixation>+</div></div>","""","""","""","""","""","""","""","""","2021-12-31 03:31:15",172.58.27.74,"Mozilla/5.0 (Windows NT 6.1; Win64; x64; rv:68.0) Gecko/20100101 Goanna/4.8 Firefox/68.0 PaleMoon/29.4.1",,Firefox,68.0,Windows,6.1,ac0f2dffeffaa78d35a552e03d03f0a8
15,2,"""",test_procedure,stim_test,canvas-button-response,101,316400,0.0-11.0-0.0-1.20,3PKVGQTFJQLSZOM7OKJDU84QFXXYRA,A20ASMCESA51U4,31LM9EDVOUTKCLW9ZF6VZLGG4H2JN3,V9L14,V9L14,31LM9EDVOUTKCLW9ZF6VZLGG4H2JN3,31LM9EDVOUTKCLW9ZF6VZLGG4H2JN3,338054,338054,2,0.04,"""",1468,0,stim2,0,Counter-clockwise,true,"""",0.01,120,"""","""","2021-12-31 03:31:15",172.58.27.74,"Mozilla/5.0 (Windows NT 6.1; Win64; x64; rv:68.0) Gecko/20100101 Goanna/4.8 Firefox/68.0 PaleMoon/29.4.1",,Firefox,68.0,Windows,6.1,ac0f2dffeffaa78d35a552e03d03f0a8
15,2,"""",test_procedure,confidence_rating,html-slider-response,102,319352,0.0-11.0-0.0-2.20,3PKVGQTFJQLSZOM7OKJDU84QFXXYRA,A20ASMCESA51U4,31LM9EDVOUTKCLW9ZF6VZLGG4H2JN3,V9L14,V9L14,31LM9EDVOUTKCLW9ZF6VZLGG4H2JN3,31LM9EDVOUTKCLW9ZF6VZLGG4H2JN3,338054,338054,2,0.04,"""",2948,27,"<div id=""message-div""><p>How confident are you that your clockwise/counter-clockwise response just now was accurate? Please rate your confidence on the slider bar below.</p></div>","""","""","""",50,"""","""","""",27,"2021-12-31 03:31:15",172.58.27.74,"Mozilla/5.0 (Windows NT 6.1; Win64; x64; rv:68.0) Gecko/20100101 Goanna/4.8 Firefox/68.0 PaleMoon/29.4.1",,Firefox,68.0,Windows,6.1,ac0f2dffeffaa78d35a552e03d03f0a8
15,2,"""",test_procedure,fixation,html-keyboard-response,103,319884,0.0-11.0-0.0-0.21,3PKVGQTFJQLSZOM7OKJDU84QFXXYRA,A20ASMCESA51U4,31LM9EDVOUTKCLW9ZF6VZLGG4H2JN3,V9L14,V9L14,31LM9EDVOUTKCLW9ZF6VZLGG4H2JN3,31LM9EDVOUTKCLW9ZF6VZLGG4H2JN3,338054,338054,2,0.04,"""",null,null,"<div class = fixationbox><div class = fixation>+</div></div>","""","""","""","""","""","""","""","""","2021-12-31 03:31:15",172.58.27.74,"Mozilla/5.0 (Windows NT 6.1; Win64; x64; rv:68.0) Gecko/20100101 Goanna/4.8 Firefox/68.0 PaleMoon/29.4.1",,Firefox,68.0,Windows,6.1,ac0f2dffeffaa78d35a552e03d03f0a8
15,2,"""",test_procedure,stim_test,canvas-button-response,104,321400,0.0-11.0-0.0-1.21,3PKVGQTFJQLSZOM7OKJDU84QFXXYRA,A20ASMCESA51U4,31LM9EDVOUTKCLW9ZF6VZLGG4H2JN3,V9L14,V9L14,31LM9EDVOUTKCLW9ZF6VZLGG4H2JN3,31LM9EDVOUTKCLW9ZF6VZLGG4H2JN3,338054,338054,2,0.04,"""",1450,1,catchStim7,1,Clockwise,true,"""",0.3,60,0.001,"""","2021-12-31 03:31:15",172.58.27.74,"Mozilla/5.0 (Windows NT 6.1; Win64; x64; rv:68.0) Gecko/20100101 Goanna/4.8 Firefox/68.0 PaleMoon/29.4.1",,Firefox,68.0,Windows,6.1,ac0f2dffeffaa78d35a552e03d03f0a8
15,2,"""",test_procedure,confidence_rating,html-slider-response,105,323808,0.0-11.0-0.0-2.21,3PKVGQTFJQLSZOM7OKJDU84QFXXYRA,A20ASMCESA51U4,31LM9EDVOUTKCLW9ZF6VZLGG4H2JN3,V9L14,V9L14,31LM9EDVOUTKCLW9ZF6VZLGG4H2JN3,31LM9EDVOUTKCLW9ZF6VZLGG4H2JN3,338054,338054,2,0.04,"""",2404,79,"<div id=""message-div""><p>How confident are you that your clockwise/counter-clockwise response just now was accurate? Please rate your confidence on the slider bar below.</p></div>","""","""","""",50,"""","""","""",79,"2021-12-31 03:31:15",172.58.27.74,"Mozilla/5.0 (Windows NT 6.1; Win64; x64; rv:68.0) Gecko/20100101 Goanna/4.8 Firefox/68.0 PaleMoon/29.4.1",,Firefox,68.0,Windows,6.1,ac0f2dffeffaa78d35a552e03d03f0a8
15,2,"""",test_procedure,fixation,html-keyboard-response,106,324316,0.0-11.0-0.0-0.22,3PKVGQTFJQLSZOM7OKJDU84QFXXYRA,A20ASMCESA51U4,31LM9EDVOUTKCLW9ZF6VZLGG4H2JN3,V9L14,V9L14,31LM9EDVOUTKCLW9ZF6VZLGG4H2JN3,31LM9EDVOUTKCLW9ZF6VZLGG4H2JN3,338054,338054,2,0.04,"""",null,null,"<div class = fixationbox><div class = fixation>+</div></div>","""","""","""","""","""","""","""","""","2021-12-31 03:31:15",172.58.27.74,"Mozilla/5.0 (Windows NT 6.1; Win64; x64; rv:68.0) Gecko/20100101 Goanna/4.8 Firefox/68.0 PaleMoon/29.4.1",,Firefox,68.0,Windows,6.1,ac0f2dffeffaa78d35a552e03d03f0a8
15,2,"""",test_procedure,stim_test,canvas-button-response,107,325896,0.0-11.0-0.0-1.22,3PKVGQTFJQLSZOM7OKJDU84QFXXYRA,A20ASMCESA51U4,31LM9EDVOUTKCLW9ZF6VZLGG4H2JN3,V9L14,V9L14,31LM9EDVOUTKCLW9ZF6VZLGG4H2JN3,31LM9EDVOUTKCLW9ZF6VZLGG4H2JN3,338054,338054,2,0.04,"""",1514,0,stim2,0,Counter-clockwise,true,"""",0.01,120,"""","""","2021-12-31 03:31:15",172.58.27.74,"Mozilla/5.0 (Windows NT 6.1; Win64; x64; rv:68.0) Gecko/20100101 Goanna/4.8 Firefox/68.0 PaleMoon/29.4.1",,Firefox,68.0,Windows,6.1,ac0f2dffeffaa78d35a552e03d03f0a8
15,2,"""",test_procedure,confidence_rating,html-slider-response,108,329112,0.0-11.0-0.0-2.22,3PKVGQTFJQLSZOM7OKJDU84QFXXYRA,A20ASMCESA51U4,31LM9EDVOUTKCLW9ZF6VZLGG4H2JN3,V9L14,V9L14,31LM9EDVOUTKCLW9ZF6VZLGG4H2JN3,31LM9EDVOUTKCLW9ZF6VZLGG4H2JN3,338054,338054,2,0.04,"""",3212,53,"<div id=""message-div""><p>How confident are you that your clockwise/counter-clockwise response just now was accurate? Please rate your confidence on the slider bar below.</p></div>","""","""","""",50,"""","""","""",53,"2021-12-31 03:31:15",172.58.27.74,"Mozilla/5.0 (Windows NT 6.1; Win64; x64; rv:68.0) Gecko/20100101 Goanna/4.8 Firefox/68.0 PaleMoon/29.4.1",,Firefox,68.0,Windows,6.1,ac0f2dffeffaa78d35a552e03d03f0a8
15,2,"""",test_procedure,fixation,html-keyboard-response,109,329634,0.0-11.0-0.0-0.23,3PKVGQTFJQLSZOM7OKJDU84QFXXYRA,A20ASMCESA51U4,31LM9EDVOUTKCLW9ZF6VZLGG4H2JN3,V9L14,V9L14,31LM9EDVOUTKCLW9ZF6VZLGG4H2JN3,31LM9EDVOUTKCLW9ZF6VZLGG4H2JN3,338054,338054,2,0.04,"""",null,null,"<div class = fixationbox><div class = fixation>+</div></div>","""","""","""","""","""","""","""","""","2021-12-31 03:31:15",172.58.27.74,"Mozilla/5.0 (Windows NT 6.1; Win64; x64; rv:68.0) Gecko/20100101 Goanna/4.8 Firefox/68.0 PaleMoon/29.4.1",,Firefox,68.0,Windows,6.1,ac0f2dffeffaa78d35a552e03d03f0a8
15,2,"""",test_procedure,stim_test,canvas-button-response,110,331152,0.0-11.0-0.0-1.23,3PKVGQTFJQLSZOM7OKJDU84QFXXYRA,A20ASMCESA51U4,31LM9EDVOUTKCLW9ZF6VZLGG4H2JN3,V9L14,V9L14,31LM9EDVOUTKCLW9ZF6VZLGG4H2JN3,31LM9EDVOUTKCLW9ZF6VZLGG4H2JN3,338054,338054,2,0.04,"""",1452,1,stim3,1,Clockwise,true,"""",0.3,60,"""","""","2021-12-31 03:31:15",172.58.27.74,"Mozilla/5.0 (Windows NT 6.1; Win64; x64; rv:68.0) Gecko/20100101 Goanna/4.8 Firefox/68.0 PaleMoon/29.4.1",,Firefox,68.0,Windows,6.1,ac0f2dffeffaa78d35a552e03d03f0a8
15,2,"""",test_procedure,confidence_rating,html-slider-response,111,333930,0.0-11.0-0.0-2.23,3PKVGQTFJQLSZOM7OKJDU84QFXXYRA,A20ASMCESA51U4,31LM9EDVOUTKCLW9ZF6VZLGG4H2JN3,V9L14,V9L14,31LM9EDVOUTKCLW9ZF6VZLGG4H2JN3,31LM9EDVOUTKCLW9ZF6VZLGG4H2JN3,338054,338054,2,0.04,"""",2774,82,"<div id=""message-div""><p>How confident are you that your clockwise/counter-clockwise response just now was accurate? Please rate your confidence on the slider bar below.</p></div>","""","""","""",50,"""","""","""",82,"2021-12-31 03:31:15",172.58.27.74,"Mozilla/5.0 (Windows NT 6.1; Win64; x64; rv:68.0) Gecko/20100101 Goanna/4.8 Firefox/68.0 PaleMoon/29.4.1",,Firefox,68.0,Windows,6.1,ac0f2dffeffaa78d35a552e03d03f0a8
15,2,"""",test_procedure,rest_block,html-button-response,112,346794,0.0-11.0-0.0-3.23-0.23,3PKVGQTFJQLSZOM7OKJDU84QFXXYRA,A20ASMCESA51U4,31LM9EDVOUTKCLW9ZF6VZLGG4H2JN3,V9L14,V9L14,31LM9EDVOUTKCLW9ZF6VZLGG4H2JN3,31LM9EDVOUTKCLW9ZF6VZLGG4H2JN3,338054,338054,2,0.04,"""",12850,0,"[""<p>You responded correctly on 70.83% of the trials in the previous section.</p><p>Time to take a break!</p><p>Once you're ready, press the \"Continue\" button to continue.</p>""]","""","""","""","""","""","""","""","""","2021-12-31 03:31:15",172.58.27.74,"Mozilla/5.0 (Windows NT 6.1; Win64; x64; rv:68.0) Gecko/20100101 Goanna/4.8 Firefox/68.0 PaleMoon/29.4.1",,Firefox,68.0,Windows,6.1,ac0f2dffeffaa78d35a552e03d03f0a8
15,2,"""",test_procedure,fixation,html-keyboard-response,113,347350,0.0-11.0-0.1-0.24,3PKVGQTFJQLSZOM7OKJDU84QFXXYRA,A20ASMCESA51U4,31LM9EDVOUTKCLW9ZF6VZLGG4H2JN3,V9L14,V9L14,31LM9EDVOUTKCLW9ZF6VZLGG4H2JN3,31LM9EDVOUTKCLW9ZF6VZLGG4H2JN3,338054,338054,2,0.04,"""",null,null,"<div class = fixationbox><div class = fixation>+</div></div>","""","""","""","""","""","""","""","""","2021-12-31 03:31:15",172.58.27.74,"Mozilla/5.0 (Windows NT 6.1; Win64; x64; rv:68.0) Gecko/20100101 Goanna/4.8 Firefox/68.0 PaleMoon/29.4.1",,Firefox,68.0,Windows,6.1,ac0f2dffeffaa78d35a552e03d03f0a8
15,2,"""",test_procedure,stim_test,canvas-button-response,114,348904,0.0-11.0-0.1-1.24,3PKVGQTFJQLSZOM7OKJDU84QFXXYRA,A20ASMCESA51U4,31LM9EDVOUTKCLW9ZF6VZLGG4H2JN3,V9L14,V9L14,31LM9EDVOUTKCLW9ZF6VZLGG4H2JN3,31LM9EDVOUTKCLW9ZF6VZLGG4H2JN3,338054,338054,2,0.04,"""",1442,0,stim2,0,Counter-clockwise,true,"""",0.01,120,"""","""","2021-12-31 03:31:15",172.58.27.74,"Mozilla/5.0 (Windows NT 6.1; Win64; x64; rv:68.0) Gecko/20100101 Goanna/4.8 Firefox/68.0 PaleMoon/29.4.1",,Firefox,68.0,Windows,6.1,ac0f2dffeffaa78d35a552e03d03f0a8
15,2,"""",test_procedure,confidence_rating,html-slider-response,115,351608,0.0-11.0-0.1-2.24,3PKVGQTFJQLSZOM7OKJDU84QFXXYRA,A20ASMCESA51U4,31LM9EDVOUTKCLW9ZF6VZLGG4H2JN3,V9L14,V9L14,31LM9EDVOUTKCLW9ZF6VZLGG4H2JN3,31LM9EDVOUTKCLW9ZF6VZLGG4H2JN3,338054,338054,2,0.04,"""",2696,90,"<div id=""message-div""><p>How confident are you that your clockwise/counter-clockwise response just now was accurate? Please rate your confidence on the slider bar below.</p></div>","""","""","""",50,"""","""","""",90,"2021-12-31 03:31:15",172.58.27.74,"Mozilla/5.0 (Windows NT 6.1; Win64; x64; rv:68.0) Gecko/20100101 Goanna/4.8 Firefox/68.0 PaleMoon/29.4.1",,Firefox,68.0,Windows,6.1,ac0f2dffeffaa78d35a552e03d03f0a8
15,2,"""",test_procedure,fixation,html-keyboard-response,116,352116,0.0-11.0-0.1-0.25,3PKVGQTFJQLSZOM7OKJDU84QFXXYRA,A20ASMCESA51U4,31LM9EDVOUTKCLW9ZF6VZLGG4H2JN3,V9L14,V9L14,31LM9EDVOUTKCLW9ZF6VZLGG4H2JN3,31LM9EDVOUTKCLW9ZF6VZLGG4H2JN3,338054,338054,2,0.04,"""",null,null,"<div class = fixationbox><div class = fixation>+</div></div>","""","""","""","""","""","""","""","""","2021-12-31 03:31:15",172.58.27.74,"Mozilla/5.0 (Windows NT 6.1; Win64; x64; rv:68.0) Gecko/20100101 Goanna/4.8 Firefox/68.0 PaleMoon/29.4.1",,Firefox,68.0,Windows,6.1,ac0f2dffeffaa78d35a552e03d03f0a8
15,2,"""",test_procedure,stim_test,canvas-button-response,117,353368,0.0-11.0-0.1-1.25,3PKVGQTFJQLSZOM7OKJDU84QFXXYRA,A20ASMCESA51U4,31LM9EDVOUTKCLW9ZF6VZLGG4H2JN3,V9L14,V9L14,31LM9EDVOUTKCLW9ZF6VZLGG4H2JN3,31LM9EDVOUTKCLW9ZF6VZLGG4H2JN3,338054,338054,2,0.04,"""",1170,0,catchStim7,1,Clockwise,false,"""",0.3,60,0.001,"""","2021-12-31 03:31:15",172.58.27.74,"Mozilla/5.0 (Windows NT 6.1; Win64; x64; rv:68.0) Gecko/20100101 Goanna/4.8 Firefox/68.0 PaleMoon/29.4.1",,Firefox,68.0,Windows,6.1,ac0f2dffeffaa78d35a552e03d03f0a8
15,2,"""",test_procedure,confidence_rating,html-slider-response,118,357120,0.0-11.0-0.1-2.25,3PKVGQTFJQLSZOM7OKJDU84QFXXYRA,A20ASMCESA51U4,31LM9EDVOUTKCLW9ZF6VZLGG4H2JN3,V9L14,V9L14,31LM9EDVOUTKCLW9ZF6VZLGG4H2JN3,31LM9EDVOUTKCLW9ZF6VZLGG4H2JN3,338054,338054,2,0.04,"""",3748,95,"<div id=""message-div""><p>How confident are you that your clockwise/counter-clockwise response just now was accurate? Please rate your confidence on the slider bar below.</p></div>","""","""","""",50,"""","""","""",95,"2021-12-31 03:31:15",172.58.27.74,"Mozilla/5.0 (Windows NT 6.1; Win64; x64; rv:68.0) Gecko/20100101 Goanna/4.8 Firefox/68.0 PaleMoon/29.4.1",,Firefox,68.0,Windows,6.1,ac0f2dffeffaa78d35a552e03d03f0a8
15,2,"""",test_procedure,fixation,html-keyboard-response,119,357670,0.0-11.0-0.1-0.26,3PKVGQTFJQLSZOM7OKJDU84QFXXYRA,A20ASMCESA51U4,31LM9EDVOUTKCLW9ZF6VZLGG4H2JN3,V9L14,V9L14,31LM9EDVOUTKCLW9ZF6VZLGG4H2JN3,31LM9EDVOUTKCLW9ZF6VZLGG4H2JN3,338054,338054,2,0.04,"""",null,null,"<div class = fixationbox><div class = fixation>+</div></div>","""","""","""","""","""","""","""","""","2021-12-31 03:31:15",172.58.27.74,"Mozilla/5.0 (Windows NT 6.1; Win64; x64; rv:68.0) Gecko/20100101 Goanna/4.8 Firefox/68.0 PaleMoon/29.4.1",,Firefox,68.0,Windows,6.1,ac0f2dffeffaa78d35a552e03d03f0a8
15,2,"""",test_procedure,stim_test,canvas-button-response,120,359056,0.0-11.0-0.1-1.26,3PKVGQTFJQLSZOM7OKJDU84QFXXYRA,A20ASMCESA51U4,31LM9EDVOUTKCLW9ZF6VZLGG4H2JN3,V9L14,V9L14,31LM9EDVOUTKCLW9ZF6VZLGG4H2JN3,31LM9EDVOUTKCLW9ZF6VZLGG4H2JN3,338054,338054,2,0.04,"""",1318,1,stim4,0,Counter-clockwise,false,"""",0.3,120,"""","""","2021-12-31 03:31:15",172.58.27.74,"Mozilla/5.0 (Windows NT 6.1; Win64; x64; rv:68.0) Gecko/20100101 Goanna/4.8 Firefox/68.0 PaleMoon/29.4.1",,Firefox,68.0,Windows,6.1,ac0f2dffeffaa78d35a552e03d03f0a8
15,2,"""",test_procedure,confidence_rating,html-slider-response,121,361536,0.0-11.0-0.1-2.26,3PKVGQTFJQLSZOM7OKJDU84QFXXYRA,A20ASMCESA51U4,31LM9EDVOUTKCLW9ZF6VZLGG4H2JN3,V9L14,V9L14,31LM9EDVOUTKCLW9ZF6VZLGG4H2JN3,31LM9EDVOUTKCLW9ZF6VZLGG4H2JN3,338054,338054,2,0.04,"""",2476,91,"<div id=""message-div""><p>How confident are you that your clockwise/counter-clockwise response just now was accurate? Please rate your confidence on the slider bar below.</p></div>","""","""","""",50,"""","""","""",91,"2021-12-31 03:31:15",172.58.27.74,"Mozilla/5.0 (Windows NT 6.1; Win64; x64; rv:68.0) Gecko/20100101 Goanna/4.8 Firefox/68.0 PaleMoon/29.4.1",,Firefox,68.0,Windows,6.1,ac0f2dffeffaa78d35a552e03d03f0a8
15,2,"""",test_procedure,fixation,html-keyboard-response,122,362040,0.0-11.0-0.1-0.27,3PKVGQTFJQLSZOM7OKJDU84QFXXYRA,A20ASMCESA51U4,31LM9EDVOUTKCLW9ZF6VZLGG4H2JN3,V9L14,V9L14,31LM9EDVOUTKCLW9ZF6VZLGG4H2JN3,31LM9EDVOUTKCLW9ZF6VZLGG4H2JN3,338054,338054,2,0.04,"""",null,null,"<div class = fixationbox><div class = fixation>+</div></div>","""","""","""","""","""","""","""","""","2021-12-31 03:31:15",172.58.27.74,"Mozilla/5.0 (Windows NT 6.1; Win64; x64; rv:68.0) Gecko/20100101 Goanna/4.8 Firefox/68.0 PaleMoon/29.4.1",,Firefox,68.0,Windows,6.1,ac0f2dffeffaa78d35a552e03d03f0a8
15,2,"""",test_procedure,stim_test,canvas-button-response,123,363488,0.0-11.0-0.1-1.27,3PKVGQTFJQLSZOM7OKJDU84QFXXYRA,A20ASMCESA51U4,31LM9EDVOUTKCLW9ZF6VZLGG4H2JN3,V9L14,V9L14,31LM9EDVOUTKCLW9ZF6VZLGG4H2JN3,31LM9EDVOUTKCLW9ZF6VZLGG4H2JN3,338054,338054,2,0.04,"""",1380,0,catchStim6,0,Counter-clockwise,true,"""",0.3,120,0.6,"""","2021-12-31 03:31:15",172.58.27.74,"Mozilla/5.0 (Windows NT 6.1; Win64; x64; rv:68.0) Gecko/20100101 Goanna/4.8 Firefox/68.0 PaleMoon/29.4.1",,Firefox,68.0,Windows,6.1,ac0f2dffeffaa78d35a552e03d03f0a8
15,2,"""",test_procedure,confidence_rating,html-slider-response,124,366488,0.0-11.0-0.1-2.27,3PKVGQTFJQLSZOM7OKJDU84QFXXYRA,A20ASMCESA51U4,31LM9EDVOUTKCLW9ZF6VZLGG4H2JN3,V9L14,V9L14,31LM9EDVOUTKCLW9ZF6VZLGG4H2JN3,31LM9EDVOUTKCLW9ZF6VZLGG4H2JN3,338054,338054,2,0.04,"""",2992,100,"<div id=""message-div""><p>How confident are you that your clockwise/counter-clockwise response just now was accurate? Please rate your confidence on the slider bar below.</p></div>","""","""","""",50,"""","""","""",100,"2021-12-31 03:31:15",172.58.27.74,"Mozilla/5.0 (Windows NT 6.1; Win64; x64; rv:68.0) Gecko/20100101 Goanna/4.8 Firefox/68.0 PaleMoon/29.4.1",,Firefox,68.0,Windows,6.1,ac0f2dffeffaa78d35a552e03d03f0a8
15,2,"""",test_procedure,fixation,html-keyboard-response,125,367012,0.0-11.0-0.1-0.28,3PKVGQTFJQLSZOM7OKJDU84QFXXYRA,A20ASMCESA51U4,31LM9EDVOUTKCLW9ZF6VZLGG4H2JN3,V9L14,V9L14,31LM9EDVOUTKCLW9ZF6VZLGG4H2JN3,31LM9EDVOUTKCLW9ZF6VZLGG4H2JN3,338054,338054,2,0.04,"""",null,null,"<div class = fixationbox><div class = fixation>+</div></div>","""","""","""","""","""","""","""","""","2021-12-31 03:31:15",172.58.27.74,"Mozilla/5.0 (Windows NT 6.1; Win64; x64; rv:68.0) Gecko/20100101 Goanna/4.8 Firefox/68.0 PaleMoon/29.4.1",,Firefox,68.0,Windows,6.1,ac0f2dffeffaa78d35a552e03d03f0a8
15,2,"""",test_procedure,stim_test,canvas-button-response,126,368568,0.0-11.0-0.1-1.28,3PKVGQTFJQLSZOM7OKJDU84QFXXYRA,A20ASMCESA51U4,31LM9EDVOUTKCLW9ZF6VZLGG4H2JN3,V9L14,V9L14,31LM9EDVOUTKCLW9ZF6VZLGG4H2JN3,31LM9EDVOUTKCLW9ZF6VZLGG4H2JN3,338054,338054,2,0.04,"""",1490,1,stim3,1,Clockwise,true,"""",0.3,60,"""","""","2021-12-31 03:31:15",172.58.27.74,"Mozilla/5.0 (Windows NT 6.1; Win64; x64; rv:68.0) Gecko/20100101 Goanna/4.8 Firefox/68.0 PaleMoon/29.4.1",,Firefox,68.0,Windows,6.1,ac0f2dffeffaa78d35a552e03d03f0a8
15,2,"""",test_procedure,confidence_rating,html-slider-response,127,370878,0.0-11.0-0.1-2.28,3PKVGQTFJQLSZOM7OKJDU84QFXXYRA,A20ASMCESA51U4,31LM9EDVOUTKCLW9ZF6VZLGG4H2JN3,V9L14,V9L14,31LM9EDVOUTKCLW9ZF6VZLGG4H2JN3,31LM9EDVOUTKCLW9ZF6VZLGG4H2JN3,338054,338054,2,0.04,"""",2308,87,"<div id=""message-div""><p>How confident are you that your clockwise/counter-clockwise response just now was accurate? Please rate your confidence on the slider bar below.</p></div>","""","""","""",50,"""","""","""",87,"2021-12-31 03:31:15",172.58.27.74,"Mozilla/5.0 (Windows NT 6.1; Win64; x64; rv:68.0) Gecko/20100101 Goanna/4.8 Firefox/68.0 PaleMoon/29.4.1",,Firefox,68.0,Windows,6.1,ac0f2dffeffaa78d35a552e03d03f0a8
15,2,"""",test_procedure,fixation,html-keyboard-response,128,371384,0.0-11.0-0.1-0.29,3PKVGQTFJQLSZOM7OKJDU84QFXXYRA,A20ASMCESA51U4,31LM9EDVOUTKCLW9ZF6VZLGG4H2JN3,V9L14,V9L14,31LM9EDVOUTKCLW9ZF6VZLGG4H2JN3,31LM9EDVOUTKCLW9ZF6VZLGG4H2JN3,338054,338054,2,0.04,"""",null,null,"<div class = fixationbox><div class = fixation>+</div></div>","""","""","""","""","""","""","""","""","2021-12-31 03:31:15",172.58.27.74,"Mozilla/5.0 (Windows NT 6.1; Win64; x64; rv:68.0) Gecko/20100101 Goanna/4.8 Firefox/68.0 PaleMoon/29.4.1",,Firefox,68.0,Windows,6.1,ac0f2dffeffaa78d35a552e03d03f0a8
15,2,"""",test_procedure,stim_test,canvas-button-response,129,372872,0.0-11.0-0.1-1.29,3PKVGQTFJQLSZOM7OKJDU84QFXXYRA,A20ASMCESA51U4,31LM9EDVOUTKCLW9ZF6VZLGG4H2JN3,V9L14,V9L14,31LM9EDVOUTKCLW9ZF6VZLGG4H2JN3,31LM9EDVOUTKCLW9ZF6VZLGG4H2JN3,338054,338054,2,0.04,"""",1424,1,stim1,1,Clockwise,true,"""",0.01,60,"""","""","2021-12-31 03:31:15",172.58.27.74,"Mozilla/5.0 (Windows NT 6.1; Win64; x64; rv:68.0) Gecko/20100101 Goanna/4.8 Firefox/68.0 PaleMoon/29.4.1",,Firefox,68.0,Windows,6.1,ac0f2dffeffaa78d35a552e03d03f0a8
15,2,"""",test_procedure,confidence_rating,html-slider-response,130,375478,0.0-11.0-0.1-2.29,3PKVGQTFJQLSZOM7OKJDU84QFXXYRA,A20ASMCESA51U4,31LM9EDVOUTKCLW9ZF6VZLGG4H2JN3,V9L14,V9L14,31LM9EDVOUTKCLW9ZF6VZLGG4H2JN3,31LM9EDVOUTKCLW9ZF6VZLGG4H2JN3,338054,338054,2,0.04,"""",2604,52,"<div id=""message-div""><p>How confident are you that your clockwise/counter-clockwise response just now was accurate? Please rate your confidence on the slider bar below.</p></div>","""","""","""",50,"""","""","""",52,"2021-12-31 03:31:15",172.58.27.74,"Mozilla/5.0 (Windows NT 6.1; Win64; x64; rv:68.0) Gecko/20100101 Goanna/4.8 Firefox/68.0 PaleMoon/29.4.1",,Firefox,68.0,Windows,6.1,ac0f2dffeffaa78d35a552e03d03f0a8
15,2,"""",test_procedure,fixation,html-keyboard-response,131,375984,0.0-11.0-0.1-0.30,3PKVGQTFJQLSZOM7OKJDU84QFXXYRA,A20ASMCESA51U4,31LM9EDVOUTKCLW9ZF6VZLGG4H2JN3,V9L14,V9L14,31LM9EDVOUTKCLW9ZF6VZLGG4H2JN3,31LM9EDVOUTKCLW9ZF6VZLGG4H2JN3,338054,338054,2,0.04,"""",null,null,"<div class = fixationbox><div class = fixation>+</div></div>","""","""","""","""","""","""","""","""","2021-12-31 03:31:15",172.58.27.74,"Mozilla/5.0 (Windows NT 6.1; Win64; x64; rv:68.0) Gecko/20100101 Goanna/4.8 Firefox/68.0 PaleMoon/29.4.1",,Firefox,68.0,Windows,6.1,ac0f2dffeffaa78d35a552e03d03f0a8
15,2,"""",test_procedure,stim_test,canvas-button-response,132,377318,0.0-11.0-0.1-1.30,3PKVGQTFJQLSZOM7OKJDU84QFXXYRA,A20ASMCESA51U4,31LM9EDVOUTKCLW9ZF6VZLGG4H2JN3,V9L14,V9L14,31LM9EDVOUTKCLW9ZF6VZLGG4H2JN3,31LM9EDVOUTKCLW9ZF6VZLGG4H2JN3,338054,338054,2,0.04,"""",1250,0,stim2,0,Counter-clockwise,true,"""",0.01,120,"""","""","2021-12-31 03:31:15",172.58.27.74,"Mozilla/5.0 (Windows NT 6.1; Win64; x64; rv:68.0) Gecko/20100101 Goanna/4.8 Firefox/68.0 PaleMoon/29.4.1",,Firefox,68.0,Windows,6.1,ac0f2dffeffaa78d35a552e03d03f0a8
15,2,"""",test_procedure,confidence_rating,html-slider-response,133,379822,0.0-11.0-0.1-2.30,3PKVGQTFJQLSZOM7OKJDU84QFXXYRA,A20ASMCESA51U4,31LM9EDVOUTKCLW9ZF6VZLGG4H2JN3,V9L14,V9L14,31LM9EDVOUTKCLW9ZF6VZLGG4H2JN3,31LM9EDVOUTKCLW9ZF6VZLGG4H2JN3,338054,338054,2,0.04,"""",2502,85,"<div id=""message-div""><p>How confident are you that your clockwise/counter-clockwise response just now was accurate? Please rate your confidence on the slider bar below.</p></div>","""","""","""",50,"""","""","""",85,"2021-12-31 03:31:15",172.58.27.74,"Mozilla/5.0 (Windows NT 6.1; Win64; x64; rv:68.0) Gecko/20100101 Goanna/4.8 Firefox/68.0 PaleMoon/29.4.1",,Firefox,68.0,Windows,6.1,ac0f2dffeffaa78d35a552e03d03f0a8
15,2,"""",test_procedure,fixation,html-keyboard-response,134,380326,0.0-11.0-0.1-0.31,3PKVGQTFJQLSZOM7OKJDU84QFXXYRA,A20ASMCESA51U4,31LM9EDVOUTKCLW9ZF6VZLGG4H2JN3,V9L14,V9L14,31LM9EDVOUTKCLW9ZF6VZLGG4H2JN3,31LM9EDVOUTKCLW9ZF6VZLGG4H2JN3,338054,338054,2,0.04,"""",null,null,"<div class = fixationbox><div class = fixation>+</div></div>","""","""","""","""","""","""","""","""","2021-12-31 03:31:15",172.58.27.74,"Mozilla/5.0 (Windows NT 6.1; Win64; x64; rv:68.0) Gecko/20100101 Goanna/4.8 Firefox/68.0 PaleMoon/29.4.1",,Firefox,68.0,Windows,6.1,ac0f2dffeffaa78d35a552e03d03f0a8
15,2,"""",test_procedure,stim_test,canvas-button-response,135,381928,0.0-11.0-0.1-1.31,3PKVGQTFJQLSZOM7OKJDU84QFXXYRA,A20ASMCESA51U4,31LM9EDVOUTKCLW9ZF6VZLGG4H2JN3,V9L14,V9L14,31LM9EDVOUTKCLW9ZF6VZLGG4H2JN3,31LM9EDVOUTKCLW9ZF6VZLGG4H2JN3,338054,338054,2,0.04,"""",1538,1,stim4,0,Counter-clockwise,false,"""",0.3,120,"""","""","2021-12-31 03:31:15",172.58.27.74,"Mozilla/5.0 (Windows NT 6.1; Win64; x64; rv:68.0) Gecko/20100101 Goanna/4.8 Firefox/68.0 PaleMoon/29.4.1",,Firefox,68.0,Windows,6.1,ac0f2dffeffaa78d35a552e03d03f0a8
15,2,"""",test_procedure,confidence_rating,html-slider-response,136,385438,0.0-11.0-0.1-2.31,3PKVGQTFJQLSZOM7OKJDU84QFXXYRA,A20ASMCESA51U4,31LM9EDVOUTKCLW9ZF6VZLGG4H2JN3,V9L14,V9L14,31LM9EDVOUTKCLW9ZF6VZLGG4H2JN3,31LM9EDVOUTKCLW9ZF6VZLGG4H2JN3,338054,338054,2,0.04,"""",3508,54,"<div id=""message-div""><p>How confident are you that your clockwise/counter-clockwise response just now was accurate? Please rate your confidence on the slider bar below.</p></div>","""","""","""",50,"""","""","""",54,"2021-12-31 03:31:15",172.58.27.74,"Mozilla/5.0 (Windows NT 6.1; Win64; x64; rv:68.0) Gecko/20100101 Goanna/4.8 Firefox/68.0 PaleMoon/29.4.1",,Firefox,68.0,Windows,6.1,ac0f2dffeffaa78d35a552e03d03f0a8
15,2,"""",test_procedure,fixation,html-keyboard-response,137,385964,0.0-11.0-0.1-0.32,3PKVGQTFJQLSZOM7OKJDU84QFXXYRA,A20ASMCESA51U4,31LM9EDVOUTKCLW9ZF6VZLGG4H2JN3,V9L14,V9L14,31LM9EDVOUTKCLW9ZF6VZLGG4H2JN3,31LM9EDVOUTKCLW9ZF6VZLGG4H2JN3,338054,338054,2,0.04,"""",null,null,"<div class = fixationbox><div class = fixation>+</div></div>","""","""","""","""","""","""","""","""","2021-12-31 03:31:15",172.58.27.74,"Mozilla/5.0 (Windows NT 6.1; Win64; x64; rv:68.0) Gecko/20100101 Goanna/4.8 Firefox/68.0 PaleMoon/29.4.1",,Firefox,68.0,Windows,6.1,ac0f2dffeffaa78d35a552e03d03f0a8
15,2,"""",test_procedure,stim_test,canvas-button-response,138,387206,0.0-11.0-0.1-1.32,3PKVGQTFJQLSZOM7OKJDU84QFXXYRA,A20ASMCESA51U4,31LM9EDVOUTKCLW9ZF6VZLGG4H2JN3,V9L14,V9L14,31LM9EDVOUTKCLW9ZF6VZLGG4H2JN3,31LM9EDVOUTKCLW9ZF6VZLGG4H2JN3,338054,338054,2,0.04,"""",1176,0,catchStim8,0,Counter-clockwise,true,"""",0.3,120,0.001,"""","2021-12-31 03:31:15",172.58.27.74,"Mozilla/5.0 (Windows NT 6.1; Win64; x64; rv:68.0) Gecko/20100101 Goanna/4.8 Firefox/68.0 PaleMoon/29.4.1",,Firefox,68.0,Windows,6.1,ac0f2dffeffaa78d35a552e03d03f0a8
15,2,"""",test_procedure,confidence_rating,html-slider-response,139,390318,0.0-11.0-0.1-2.32,3PKVGQTFJQLSZOM7OKJDU84QFXXYRA,A20ASMCESA51U4,31LM9EDVOUTKCLW9ZF6VZLGG4H2JN3,V9L14,V9L14,31LM9EDVOUTKCLW9ZF6VZLGG4H2JN3,31LM9EDVOUTKCLW9ZF6VZLGG4H2JN3,338054,338054,2,0.04,"""",3106,50,"<div id=""message-div""><p>How confident are you that your clockwise/counter-clockwise response just now was accurate? Please rate your confidence on the slider bar below.</p></div>","""","""","""",50,"""","""","""",50,"2021-12-31 03:31:15",172.58.27.74,"Mozilla/5.0 (Windows NT 6.1; Win64; x64; rv:68.0) Gecko/20100101 Goanna/4.8 Firefox/68.0 PaleMoon/29.4.1",,Firefox,68.0,Windows,6.1,ac0f2dffeffaa78d35a552e03d03f0a8
15,2,"""",test_procedure,fixation,html-keyboard-response,140,390824,0.0-11.0-0.1-0.33,3PKVGQTFJQLSZOM7OKJDU84QFXXYRA,A20ASMCESA51U4,31LM9EDVOUTKCLW9ZF6VZLGG4H2JN3,V9L14,V9L14,31LM9EDVOUTKCLW9ZF6VZLGG4H2JN3,31LM9EDVOUTKCLW9ZF6VZLGG4H2JN3,338054,338054,2,0.04,"""",null,null,"<div class = fixationbox><div class = fixation>+</div></div>","""","""","""","""","""","""","""","""","2021-12-31 03:31:15",172.58.27.74,"Mozilla/5.0 (Windows NT 6.1; Win64; x64; rv:68.0) Gecko/20100101 Goanna/4.8 Firefox/68.0 PaleMoon/29.4.1",,Firefox,68.0,Windows,6.1,ac0f2dffeffaa78d35a552e03d03f0a8
15,2,"""",test_procedure,stim_test,canvas-button-response,141,392182,0.0-11.0-0.1-1.33,3PKVGQTFJQLSZOM7OKJDU84QFXXYRA,A20ASMCESA51U4,31LM9EDVOUTKCLW9ZF6VZLGG4H2JN3,V9L14,V9L14,31LM9EDVOUTKCLW9ZF6VZLGG4H2JN3,31LM9EDVOUTKCLW9ZF6VZLGG4H2JN3,338054,338054,2,0.04,"""",1298,1,catchStim5,1,Clockwise,true,"""",0.3,60,0.6,"""","2021-12-31 03:31:15",172.58.27.74,"Mozilla/5.0 (Windows NT 6.1; Win64; x64; rv:68.0) Gecko/20100101 Goanna/4.8 Firefox/68.0 PaleMoon/29.4.1",,Firefox,68.0,Windows,6.1,ac0f2dffeffaa78d35a552e03d03f0a8
15,2,"""",test_procedure,confidence_rating,html-slider-response,142,395222,0.0-11.0-0.1-2.33,3PKVGQTFJQLSZOM7OKJDU84QFXXYRA,A20ASMCESA51U4,31LM9EDVOUTKCLW9ZF6VZLGG4H2JN3,V9L14,V9L14,31LM9EDVOUTKCLW9ZF6VZLGG4H2JN3,31LM9EDVOUTKCLW9ZF6VZLGG4H2JN3,338054,338054,2,0.04,"""",3034,100,"<div id=""message-div""><p>How confident are you that your clockwise/counter-clockwise response just now was accurate? Please rate your confidence on the slider bar below.</p></div>","""","""","""",50,"""","""","""",100,"2021-12-31 03:31:15",172.58.27.74,"Mozilla/5.0 (Windows NT 6.1; Win64; x64; rv:68.0) Gecko/20100101 Goanna/4.8 Firefox/68.0 PaleMoon/29.4.1",,Firefox,68.0,Windows,6.1,ac0f2dffeffaa78d35a552e03d03f0a8
15,2,"""",test_procedure,fixation,html-keyboard-response,143,395746,0.0-11.0-0.1-0.34,3PKVGQTFJQLSZOM7OKJDU84QFXXYRA,A20ASMCESA51U4,31LM9EDVOUTKCLW9ZF6VZLGG4H2JN3,V9L14,V9L14,31LM9EDVOUTKCLW9ZF6VZLGG4H2JN3,31LM9EDVOUTKCLW9ZF6VZLGG4H2JN3,338054,338054,2,0.04,"""",null,null,"<div class = fixationbox><div class = fixation>+</div></div>","""","""","""","""","""","""","""","""","2021-12-31 03:31:15",172.58.27.74,"Mozilla/5.0 (Windows NT 6.1; Win64; x64; rv:68.0) Gecko/20100101 Goanna/4.8 Firefox/68.0 PaleMoon/29.4.1",,Firefox,68.0,Windows,6.1,ac0f2dffeffaa78d35a552e03d03f0a8
15,2,"""",test_procedure,stim_test,canvas-button-response,144,397246,0.0-11.0-0.1-1.34,3PKVGQTFJQLSZOM7OKJDU84QFXXYRA,A20ASMCESA51U4,31LM9EDVOUTKCLW9ZF6VZLGG4H2JN3,V9L14,V9L14,31LM9EDVOUTKCLW9ZF6VZLGG4H2JN3,31LM9EDVOUTKCLW9ZF6VZLGG4H2JN3,338054,338054,2,0.04,"""",1438,0,stim3,1,Clockwise,false,"""",0.3,60,"""","""","2021-12-31 03:31:15",172.58.27.74,"Mozilla/5.0 (Windows NT 6.1; Win64; x64; rv:68.0) Gecko/20100101 Goanna/4.8 Firefox/68.0 PaleMoon/29.4.1",,Firefox,68.0,Windows,6.1,ac0f2dffeffaa78d35a552e03d03f0a8
15,2,"""",test_procedure,confidence_rating,html-slider-response,145,400198,0.0-11.0-0.1-2.34,3PKVGQTFJQLSZOM7OKJDU84QFXXYRA,A20ASMCESA51U4,31LM9EDVOUTKCLW9ZF6VZLGG4H2JN3,V9L14,V9L14,31LM9EDVOUTKCLW9ZF6VZLGG4H2JN3,31LM9EDVOUTKCLW9ZF6VZLGG4H2JN3,338054,338054,2,0.04,"""",2948,32,"<div id=""message-div""><p>How confident are you that your clockwise/counter-clockwise response just now was accurate? Please rate your confidence on the slider bar below.</p></div>","""","""","""",50,"""","""","""",32,"2021-12-31 03:31:15",172.58.27.74,"Mozilla/5.0 (Windows NT 6.1; Win64; x64; rv:68.0) Gecko/20100101 Goanna/4.8 Firefox/68.0 PaleMoon/29.4.1",,Firefox,68.0,Windows,6.1,ac0f2dffeffaa78d35a552e03d03f0a8
15,2,"""",test_procedure,fixation,html-keyboard-response,146,400704,0.0-11.0-0.1-0.35,3PKVGQTFJQLSZOM7OKJDU84QFXXYRA,A20ASMCESA51U4,31LM9EDVOUTKCLW9ZF6VZLGG4H2JN3,V9L14,V9L14,31LM9EDVOUTKCLW9ZF6VZLGG4H2JN3,31LM9EDVOUTKCLW9ZF6VZLGG4H2JN3,338054,338054,2,0.04,"""",null,null,"<div class = fixationbox><div class = fixation>+</div></div>","""","""","""","""","""","""","""","""","2021-12-31 03:31:15",172.58.27.74,"Mozilla/5.0 (Windows NT 6.1; Win64; x64; rv:68.0) Gecko/20100101 Goanna/4.8 Firefox/68.0 PaleMoon/29.4.1",,Firefox,68.0,Windows,6.1,ac0f2dffeffaa78d35a552e03d03f0a8
15,2,"""",test_procedure,stim_test,canvas-button-response,147,402070,0.0-11.0-0.1-1.35,3PKVGQTFJQLSZOM7OKJDU84QFXXYRA,A20ASMCESA51U4,31LM9EDVOUTKCLW9ZF6VZLGG4H2JN3,V9L14,V9L14,31LM9EDVOUTKCLW9ZF6VZLGG4H2JN3,31LM9EDVOUTKCLW9ZF6VZLGG4H2JN3,338054,338054,2,0.04,"""",1302,0,stim2,0,Counter-clockwise,true,"""",0.01,120,"""","""","2021-12-31 03:31:15",172.58.27.74,"Mozilla/5.0 (Windows NT 6.1; Win64; x64; rv:68.0) Gecko/20100101 Goanna/4.8 Firefox/68.0 PaleMoon/29.4.1",,Firefox,68.0,Windows,6.1,ac0f2dffeffaa78d35a552e03d03f0a8
15,2,"""",test_procedure,confidence_rating,html-slider-response,148,404382,0.0-11.0-0.1-2.35,3PKVGQTFJQLSZOM7OKJDU84QFXXYRA,A20ASMCESA51U4,31LM9EDVOUTKCLW9ZF6VZLGG4H2JN3,V9L14,V9L14,31LM9EDVOUTKCLW9ZF6VZLGG4H2JN3,31LM9EDVOUTKCLW9ZF6VZLGG4H2JN3,338054,338054,2,0.04,"""",2308,80,"<div id=""message-div""><p>How confident are you that your clockwise/counter-clockwise response just now was accurate? Please rate your confidence on the slider bar below.</p></div>","""","""","""",50,"""","""","""",80,"2021-12-31 03:31:15",172.58.27.74,"Mozilla/5.0 (Windows NT 6.1; Win64; x64; rv:68.0) Gecko/20100101 Goanna/4.8 Firefox/68.0 PaleMoon/29.4.1",,Firefox,68.0,Windows,6.1,ac0f2dffeffaa78d35a552e03d03f0a8
15,2,"""",test_procedure,fixation,html-keyboard-response,149,404886,0.0-11.0-0.1-0.36,3PKVGQTFJQLSZOM7OKJDU84QFXXYRA,A20ASMCESA51U4,31LM9EDVOUTKCLW9ZF6VZLGG4H2JN3,V9L14,V9L14,31LM9EDVOUTKCLW9ZF6VZLGG4H2JN3,31LM9EDVOUTKCLW9ZF6VZLGG4H2JN3,338054,338054,2,0.04,"""",null,null,"<div class = fixationbox><div class = fixation>+</div></div>","""","""","""","""","""","""","""","""","2021-12-31 03:31:15",172.58.27.74,"Mozilla/5.0 (Windows NT 6.1; Win64; x64; rv:68.0) Gecko/20100101 Goanna/4.8 Firefox/68.0 PaleMoon/29.4.1",,Firefox,68.0,Windows,6.1,ac0f2dffeffaa78d35a552e03d03f0a8
15,2,"""",test_procedure,stim_test,canvas-button-response,150,406494,0.0-11.0-0.1-1.36,3PKVGQTFJQLSZOM7OKJDU84QFXXYRA,A20ASMCESA51U4,31LM9EDVOUTKCLW9ZF6VZLGG4H2JN3,V9L14,V9L14,31LM9EDVOUTKCLW9ZF6VZLGG4H2JN3,31LM9EDVOUTKCLW9ZF6VZLGG4H2JN3,338054,338054,2,0.04,"""",1520,1,stim1,1,Clockwise,true,"""",0.01,60,"""","""","2021-12-31 03:31:15",172.58.27.74,"Mozilla/5.0 (Windows NT 6.1; Win64; x64; rv:68.0) Gecko/20100101 Goanna/4.8 Firefox/68.0 PaleMoon/29.4.1",,Firefox,68.0,Windows,6.1,ac0f2dffeffaa78d35a552e03d03f0a8
15,2,"""",test_procedure,confidence_rating,html-slider-response,151,409480,0.0-11.0-0.1-2.36,3PKVGQTFJQLSZOM7OKJDU84QFXXYRA,A20ASMCESA51U4,31LM9EDVOUTKCLW9ZF6VZLGG4H2JN3,V9L14,V9L14,31LM9EDVOUTKCLW9ZF6VZLGG4H2JN3,31LM9EDVOUTKCLW9ZF6VZLGG4H2JN3,338054,338054,2,0.04,"""",2982,83,"<div id=""message-div""><p>How confident are you that your clockwise/counter-clockwise response just now was accurate? Please rate your confidence on the slider bar below.</p></div>","""","""","""",50,"""","""","""",83,"2021-12-31 03:31:15",172.58.27.74,"Mozilla/5.0 (Windows NT 6.1; Win64; x64; rv:68.0) Gecko/20100101 Goanna/4.8 Firefox/68.0 PaleMoon/29.4.1",,Firefox,68.0,Windows,6.1,ac0f2dffeffaa78d35a552e03d03f0a8
15,2,"""",test_procedure,fixation,html-keyboard-response,152,409988,0.0-11.0-0.1-0.37,3PKVGQTFJQLSZOM7OKJDU84QFXXYRA,A20ASMCESA51U4,31LM9EDVOUTKCLW9ZF6VZLGG4H2JN3,V9L14,V9L14,31LM9EDVOUTKCLW9ZF6VZLGG4H2JN3,31LM9EDVOUTKCLW9ZF6VZLGG4H2JN3,338054,338054,2,0.04,"""",null,null,"<div class = fixationbox><div class = fixation>+</div></div>","""","""","""","""","""","""","""","""","2021-12-31 03:31:15",172.58.27.74,"Mozilla/5.0 (Windows NT 6.1; Win64; x64; rv:68.0) Gecko/20100101 Goanna/4.8 Firefox/68.0 PaleMoon/29.4.1",,Firefox,68.0,Windows,6.1,ac0f2dffeffaa78d35a552e03d03f0a8
15,2,"""",test_procedure,stim_test,canvas-button-response,153,411494,0.0-11.0-0.1-1.37,3PKVGQTFJQLSZOM7OKJDU84QFXXYRA,A20ASMCESA51U4,31LM9EDVOUTKCLW9ZF6VZLGG4H2JN3,V9L14,V9L14,31LM9EDVOUTKCLW9ZF6VZLGG4H2JN3,31LM9EDVOUTKCLW9ZF6VZLGG4H2JN3,338054,338054,2,0.04,"""",1404,0,stim3,1,Clockwise,false,"""",0.3,60,"""","""","2021-12-31 03:31:15",172.58.27.74,"Mozilla/5.0 (Windows NT 6.1; Win64; x64; rv:68.0) Gecko/20100101 Goanna/4.8 Firefox/68.0 PaleMoon/29.4.1",,Firefox,68.0,Windows,6.1,ac0f2dffeffaa78d35a552e03d03f0a8
15,2,"""",test_procedure,confidence_rating,html-slider-response,154,414288,0.0-11.0-0.1-2.37,3PKVGQTFJQLSZOM7OKJDU84QFXXYRA,A20ASMCESA51U4,31LM9EDVOUTKCLW9ZF6VZLGG4H2JN3,V9L14,V9L14,31LM9EDVOUTKCLW9ZF6VZLGG4H2JN3,31LM9EDVOUTKCLW9ZF6VZLGG4H2JN3,338054,338054,2,0.04,"""",2784,86,"<div id=""message-div""><p>How confident are you that your clockwise/counter-clockwise response just now was accurate? Please rate your confidence on the slider bar below.</p></div>","""","""","""",50,"""","""","""",86,"2021-12-31 03:31:15",172.58.27.74,"Mozilla/5.0 (Windows NT 6.1; Win64; x64; rv:68.0) Gecko/20100101 Goanna/4.8 Firefox/68.0 PaleMoon/29.4.1",,Firefox,68.0,Windows,6.1,ac0f2dffeffaa78d35a552e03d03f0a8
15,2,"""",test_procedure,fixation,html-keyboard-response,155,414856,0.0-11.0-0.1-0.38,3PKVGQTFJQLSZOM7OKJDU84QFXXYRA,A20ASMCESA51U4,31LM9EDVOUTKCLW9ZF6VZLGG4H2JN3,V9L14,V9L14,31LM9EDVOUTKCLW9ZF6VZLGG4H2JN3,31LM9EDVOUTKCLW9ZF6VZLGG4H2JN3,338054,338054,2,0.04,"""",null,null,"<div class = fixationbox><div class = fixation>+</div></div>","""","""","""","""","""","""","""","""","2021-12-31 03:31:15",172.58.27.74,"Mozilla/5.0 (Windows NT 6.1; Win64; x64; rv:68.0) Gecko/20100101 Goanna/4.8 Firefox/68.0 PaleMoon/29.4.1",,Firefox,68.0,Windows,6.1,ac0f2dffeffaa78d35a552e03d03f0a8
15,2,"""",test_procedure,stim_test,canvas-button-response,156,416262,0.0-11.0-0.1-1.38,3PKVGQTFJQLSZOM7OKJDU84QFXXYRA,A20ASMCESA51U4,31LM9EDVOUTKCLW9ZF6VZLGG4H2JN3,V9L14,V9L14,31LM9EDVOUTKCLW9ZF6VZLGG4H2JN3,31LM9EDVOUTKCLW9ZF6VZLGG4H2JN3,338054,338054,2,0.04,"""",1304,1,stim3,1,Clockwise,true,"""",0.3,60,"""","""","2021-12-31 03:31:15",172.58.27.74,"Mozilla/5.0 (Windows NT 6.1; Win64; x64; rv:68.0) Gecko/20100101 Goanna/4.8 Firefox/68.0 PaleMoon/29.4.1",,Firefox,68.0,Windows,6.1,ac0f2dffeffaa78d35a552e03d03f0a8
15,2,"""",test_procedure,confidence_rating,html-slider-response,157,418686,0.0-11.0-0.1-2.38,3PKVGQTFJQLSZOM7OKJDU84QFXXYRA,A20ASMCESA51U4,31LM9EDVOUTKCLW9ZF6VZLGG4H2JN3,V9L14,V9L14,31LM9EDVOUTKCLW9ZF6VZLGG4H2JN3,31LM9EDVOUTKCLW9ZF6VZLGG4H2JN3,338054,338054,2,0.04,"""",2416,97,"<div id=""message-div""><p>How confident are you that your clockwise/counter-clockwise response just now was accurate? Please rate your confidence on the slider bar below.</p></div>","""","""","""",50,"""","""","""",97,"2021-12-31 03:31:15",172.58.27.74,"Mozilla/5.0 (Windows NT 6.1; Win64; x64; rv:68.0) Gecko/20100101 Goanna/4.8 Firefox/68.0 PaleMoon/29.4.1",,Firefox,68.0,Windows,6.1,ac0f2dffeffaa78d35a552e03d03f0a8
15,2,"""",test_procedure,fixation,html-keyboard-response,158,419192,0.0-11.0-0.1-0.39,3PKVGQTFJQLSZOM7OKJDU84QFXXYRA,A20ASMCESA51U4,31LM9EDVOUTKCLW9ZF6VZLGG4H2JN3,V9L14,V9L14,31LM9EDVOUTKCLW9ZF6VZLGG4H2JN3,31LM9EDVOUTKCLW9ZF6VZLGG4H2JN3,338054,338054,2,0.04,"""",null,null,"<div class = fixationbox><div class = fixation>+</div></div>","""","""","""","""","""","""","""","""","2021-12-31 03:31:15",172.58.27.74,"Mozilla/5.0 (Windows NT 6.1; Win64; x64; rv:68.0) Gecko/20100101 Goanna/4.8 Firefox/68.0 PaleMoon/29.4.1",,Firefox,68.0,Windows,6.1,ac0f2dffeffaa78d35a552e03d03f0a8
15,2,"""",test_procedure,stim_test,canvas-button-response,159,420622,0.0-11.0-0.1-1.39,3PKVGQTFJQLSZOM7OKJDU84QFXXYRA,A20ASMCESA51U4,31LM9EDVOUTKCLW9ZF6VZLGG4H2JN3,V9L14,V9L14,31LM9EDVOUTKCLW9ZF6VZLGG4H2JN3,31LM9EDVOUTKCLW9ZF6VZLGG4H2JN3,338054,338054,2,0.04,"""",1354,1,stim1,1,Clockwise,true,"""",0.01,60,"""","""","2021-12-31 03:31:15",172.58.27.74,"Mozilla/5.0 (Windows NT 6.1; Win64; x64; rv:68.0) Gecko/20100101 Goanna/4.8 Firefox/68.0 PaleMoon/29.4.1",,Firefox,68.0,Windows,6.1,ac0f2dffeffaa78d35a552e03d03f0a8
15,2,"""",test_procedure,confidence_rating,html-slider-response,160,422934,0.0-11.0-0.1-2.39,3PKVGQTFJQLSZOM7OKJDU84QFXXYRA,A20ASMCESA51U4,31LM9EDVOUTKCLW9ZF6VZLGG4H2JN3,V9L14,V9L14,31LM9EDVOUTKCLW9ZF6VZLGG4H2JN3,31LM9EDVOUTKCLW9ZF6VZLGG4H2JN3,338054,338054,2,0.04,"""",2308,47,"<div id=""message-div""><p>How confident are you that your clockwise/counter-clockwise response just now was accurate? Please rate your confidence on the slider bar below.</p></div>","""","""","""",50,"""","""","""",47,"2021-12-31 03:31:15",172.58.27.74,"Mozilla/5.0 (Windows NT 6.1; Win64; x64; rv:68.0) Gecko/20100101 Goanna/4.8 Firefox/68.0 PaleMoon/29.4.1",,Firefox,68.0,Windows,6.1,ac0f2dffeffaa78d35a552e03d03f0a8
15,2,"""",test_procedure,fixation,html-keyboard-response,161,423440,0.0-11.0-0.1-0.40,3PKVGQTFJQLSZOM7OKJDU84QFXXYRA,A20ASMCESA51U4,31LM9EDVOUTKCLW9ZF6VZLGG4H2JN3,V9L14,V9L14,31LM9EDVOUTKCLW9ZF6VZLGG4H2JN3,31LM9EDVOUTKCLW9ZF6VZLGG4H2JN3,338054,338054,2,0.04,"""",null,null,"<div class = fixationbox><div class = fixation>+</div></div>","""","""","""","""","""","""","""","""","2021-12-31 03:31:15",172.58.27.74,"Mozilla/5.0 (Windows NT 6.1; Win64; x64; rv:68.0) Gecko/20100101 Goanna/4.8 Firefox/68.0 PaleMoon/29.4.1",,Firefox,68.0,Windows,6.1,ac0f2dffeffaa78d35a552e03d03f0a8
15,2,"""",test_procedure,stim_test,canvas-button-response,162,424830,0.0-11.0-0.1-1.40,3PKVGQTFJQLSZOM7OKJDU84QFXXYRA,A20ASMCESA51U4,31LM9EDVOUTKCLW9ZF6VZLGG4H2JN3,V9L14,V9L14,31LM9EDVOUTKCLW9ZF6VZLGG4H2JN3,31LM9EDVOUTKCLW9ZF6VZLGG4H2JN3,338054,338054,2,0.04,"""",1324,0,stim4,0,Counter-clockwise,true,"""",0.3,120,"""","""","2021-12-31 03:31:15",172.58.27.74,"Mozilla/5.0 (Windows NT 6.1; Win64; x64; rv:68.0) Gecko/20100101 Goanna/4.8 Firefox/68.0 PaleMoon/29.4.1",,Firefox,68.0,Windows,6.1,ac0f2dffeffaa78d35a552e03d03f0a8
15,2,"""",test_procedure,confidence_rating,html-slider-response,163,427214,0.0-11.0-0.1-2.40,3PKVGQTFJQLSZOM7OKJDU84QFXXYRA,A20ASMCESA51U4,31LM9EDVOUTKCLW9ZF6VZLGG4H2JN3,V9L14,V9L14,31LM9EDVOUTKCLW9ZF6VZLGG4H2JN3,31LM9EDVOUTKCLW9ZF6VZLGG4H2JN3,338054,338054,2,0.04,"""",2328,94,"<div id=""message-div""><p>How confident are you that your clockwise/counter-clockwise response just now was accurate? Please rate your confidence on the slider bar below.</p></div>","""","""","""",50,"""","""","""",94,"2021-12-31 03:31:15",172.58.27.74,"Mozilla/5.0 (Windows NT 6.1; Win64; x64; rv:68.0) Gecko/20100101 Goanna/4.8 Firefox/68.0 PaleMoon/29.4.1",,Firefox,68.0,Windows,6.1,ac0f2dffeffaa78d35a552e03d03f0a8
15,2,"""",test_procedure,fixation,html-keyboard-response,164,427718,0.0-11.0-0.1-0.41,3PKVGQTFJQLSZOM7OKJDU84QFXXYRA,A20ASMCESA51U4,31LM9EDVOUTKCLW9ZF6VZLGG4H2JN3,V9L14,V9L14,31LM9EDVOUTKCLW9ZF6VZLGG4H2JN3,31LM9EDVOUTKCLW9ZF6VZLGG4H2JN3,338054,338054,2,0.04,"""",null,null,"<div class = fixationbox><div class = fixation>+</div></div>","""","""","""","""","""","""","""","""","2021-12-31 03:31:15",172.58.27.74,"Mozilla/5.0 (Windows NT 6.1; Win64; x64; rv:68.0) Gecko/20100101 Goanna/4.8 Firefox/68.0 PaleMoon/29.4.1",,Firefox,68.0,Windows,6.1,ac0f2dffeffaa78d35a552e03d03f0a8
15,2,"""",test_procedure,stim_test,canvas-button-response,165,429456,0.0-11.0-0.1-1.41,3PKVGQTFJQLSZOM7OKJDU84QFXXYRA,A20ASMCESA51U4,31LM9EDVOUTKCLW9ZF6VZLGG4H2JN3,V9L14,V9L14,31LM9EDVOUTKCLW9ZF6VZLGG4H2JN3,31LM9EDVOUTKCLW9ZF6VZLGG4H2JN3,338054,338054,2,0.04,"""",1670,0,catchStim3,1,Clockwise,false,"""",0.01,60,0.001,"""","2021-12-31 03:31:15",172.58.27.74,"Mozilla/5.0 (Windows NT 6.1; Win64; x64; rv:68.0) Gecko/20100101 Goanna/4.8 Firefox/68.0 PaleMoon/29.4.1",,Firefox,68.0,Windows,6.1,ac0f2dffeffaa78d35a552e03d03f0a8
