run_id,condition,success,exp_stage,trial_id,trial_type,trial_index,time_elapsed,internal_node_id,hitId,workerId,assignmentId,a,tp_a,b,tp_b,c,tp_c,conditionmyown,cen_signal_contrast_stim,view_history,rt,response,stimulus,correct_response,correct_response_in_clockwise_or_counterclockwise,correct,slider_start,ctx_signal_contrast,cen_angle_in_degree,cen_signal_contrast_catchStim,confidence,recorded_at,ip,user_agent,device,browser,browser_version,platform,platform_version,source_code_version
16,3,true,pre-exp,fullscreen_starts,fullscreen,0,8428,0.0-0.0,3SD15I2WEBVYX2RZ7BNPTJHHA9P63F,A2196WCNDZULFS,3IXQG4FA22ZT50U3ADA9JW2JRNC9B9,AGXI4,AGXI4,3IXQG4FA22ZT50U3ADA9JW2JRNC9B9,3IXQG4FA22ZT50U3ADA9JW2JRNC9B9,338054,338054,3,0.06,"""","""","""","""","""","""","""","""","""","""","""","""","2021-12-31 03:31:58",67.158.16.226,"Mozilla/5.0 (Windows NT 10.0; Win64; x64) AppleWebKit/537.36 (KHTML, like Gecko) Chrome/96.0.4664.110 Safari/537.36",WebKit,Chrome,96.0.4664.110,Windows,10.0,ac0f2dffeffaa78d35a552e03d03f0a8
16,3,"""",pre-exp,instructionspage1,instructions,1,40685,0.0-1.0-0.0,3SD15I2WEBVYX2RZ7BNPTJHHA9P63F,A2196WCNDZULFS,3IXQG4FA22ZT50U3ADA9JW2JRNC9B9,AGXI4,AGXI4,3IXQG4FA22ZT50U3ADA9JW2JRNC9B9,3IXQG4FA22ZT50U3ADA9JW2JRNC9B9,338054,338054,3,0.06,"[{""page_index"":0,""viewing_time"":32253.700000047684}]",32254,"""","""","""","""","""","""","""","""","""","""","2021-12-31 03:31:58",67.158.16.226,"Mozilla/5.0 (Windows NT 10.0; Win64; x64) AppleWebKit/537.36 (KHTML, like Gecko) Chrome/96.0.4664.110 Safari/537.36",WebKit,Chrome,96.0.4664.110,Windows,10.0,ac0f2dffeffaa78d35a552e03d03f0a8
16,3,"""",pre-exp,instructions_block2,canvas-button-response,2,66878,0.0-2.0-0.0-0.0,3SD15I2WEBVYX2RZ7BNPTJHHA9P63F,A2196WCNDZULFS,3IXQG4FA22ZT50U3ADA9JW2JRNC9B9,AGXI4,AGXI4,3IXQG4FA22ZT50U3ADA9JW2JRNC9B9,3IXQG4FA22ZT50U3ADA9JW2JRNC9B9,338054,338054,3,0.06,"""",26098.099999904633,1,instructionStim1,1,Clockwise,true,"""","""","""","""","""","2021-12-31 03:31:58",67.158.16.226,"Mozilla/5.0 (Windows NT 10.0; Win64; x64) AppleWebKit/537.36 (KHTML, like Gecko) Chrome/96.0.4664.110 Safari/537.36",WebKit,Chrome,96.0.4664.110,Windows,10.0,ac0f2dffeffaa78d35a552e03d03f0a8
16,3,"""",pre-exp,instructions_block3,canvas-button-response,3,71029,0.0-3.0-0.0-0.0,3SD15I2WEBVYX2RZ7BNPTJHHA9P63F,A2196WCNDZULFS,3IXQG4FA22ZT50U3ADA9JW2JRNC9B9,AGXI4,AGXI4,3IXQG4FA22ZT50U3ADA9JW2JRNC9B9,3IXQG4FA22ZT50U3ADA9JW2JRNC9B9,338054,338054,3,0.06,"""",4069.2000000476837,0,instructionStim2,0,Counter-clockwise,true,"""","""","""","""","""","2021-12-31 03:31:58",67.158.16.226,"Mozilla/5.0 (Windows NT 10.0; Win64; x64) AppleWebKit/537.36 (KHTML, like Gecko) Chrome/96.0.4664.110 Safari/537.36",WebKit,Chrome,96.0.4664.110,Windows,10.0,ac0f2dffeffaa78d35a552e03d03f0a8
16,3,"""",pre-exp,instructions_block4,html-slider-response,4,87365,0.0-4.0,3SD15I2WEBVYX2RZ7BNPTJHHA9P63F,A2196WCNDZULFS,3IXQG4FA22ZT50U3ADA9JW2JRNC9B9,AGXI4,AGXI4,3IXQG4FA22ZT50U3ADA9JW2JRNC9B9,3IXQG4FA22ZT50U3ADA9JW2JRNC9B9,338054,338054,3,0.06,"""",16334.399999856949,59,"<div id=""message-div""><p>After you have made your clockwise/counter-clockwise choice, <br>you will be asked to rate how confident you are that you were correct in your clockwise/counter-clockwise choice using a slide bar.<br>Please try to use the entire range of the slider bar.<br>For example, feel free to move the slider to the leftmost location if you are extremely uncertain about your choice, and the rightmost location if you are extremely certain.</p></div>","""","""","""",50,"""","""","""","""","2021-12-31 03:31:58",67.158.16.226,"Mozilla/5.0 (Windows NT 10.0; Win64; x64) AppleWebKit/537.36 (KHTML, like Gecko) Chrome/96.0.4664.110 Safari/537.36",WebKit,Chrome,96.0.4664.110,Windows,10.0,ac0f2dffeffaa78d35a552e03d03f0a8
16,3,"""",pre-exp,instructionspage5,instructions,5,93037,0.0-5.0-0.0,3SD15I2WEBVYX2RZ7BNPTJHHA9P63F,A2196WCNDZULFS,3IXQG4FA22ZT50U3ADA9JW2JRNC9B9,AGXI4,AGXI4,3IXQG4FA22ZT50U3ADA9JW2JRNC9B9,3IXQG4FA22ZT50U3ADA9JW2JRNC9B9,338054,338054,3,0.06,"[{""page_index"":0,""viewing_time"":5668.399999856949}]",5668.599999904633,"""","""","""","""","""","""","""","""","""","""","2021-12-31 03:31:58",67.158.16.226,"Mozilla/5.0 (Windows NT 10.0; Win64; x64) AppleWebKit/537.36 (KHTML, like Gecko) Chrome/96.0.4664.110 Safari/537.36",WebKit,Chrome,96.0.4664.110,Windows,10.0,ac0f2dffeffaa78d35a552e03d03f0a8
16,3,"""",pre-exp,instructionspage6,instructions,6,94901,0.0-6.0-0.0,3SD15I2WEBVYX2RZ7BNPTJHHA9P63F,A2196WCNDZULFS,3IXQG4FA22ZT50U3ADA9JW2JRNC9B9,AGXI4,AGXI4,3IXQG4FA22ZT50U3ADA9JW2JRNC9B9,3IXQG4FA22ZT50U3ADA9JW2JRNC9B9,338054,338054,3,0.06,"[{""page_index"":0,""viewing_time"":1863}]",1863.2999999523163,"""","""","""","""","""","""","""","""","""","""","2021-12-31 03:31:58",67.158.16.226,"Mozilla/5.0 (Windows NT 10.0; Win64; x64) AppleWebKit/537.36 (KHTML, like Gecko) Chrome/96.0.4664.110 Safari/537.36",WebKit,Chrome,96.0.4664.110,Windows,10.0,ac0f2dffeffaa78d35a552e03d03f0a8
16,3,"""",pre-exp,instructionspage7,instructions,7,101180,0.0-7.0-0.0,3SD15I2WEBVYX2RZ7BNPTJHHA9P63F,A2196WCNDZULFS,3IXQG4FA22ZT50U3ADA9JW2JRNC9B9,AGXI4,AGXI4,3IXQG4FA22ZT50U3ADA9JW2JRNC9B9,3IXQG4FA22ZT50U3ADA9JW2JRNC9B9,338054,338054,3,0.06,"[{""page_index"":0,""viewing_time"":6278.400000095367}]",6278.599999904633,"""","""","""","""","""","""","""","""","""","""","2021-12-31 03:31:58",67.158.16.226,"Mozilla/5.0 (Windows NT 10.0; Win64; x64) AppleWebKit/537.36 (KHTML, like Gecko) Chrome/96.0.4664.110 Safari/537.36",WebKit,Chrome,96.0.4664.110,Windows,10.0,ac0f2dffeffaa78d35a552e03d03f0a8
16,3,"""",pre-exp,instructionspage8,instructions,8,105596,0.0-8.0-0.0,3SD15I2WEBVYX2RZ7BNPTJHHA9P63F,A2196WCNDZULFS,3IXQG4FA22ZT50U3ADA9JW2JRNC9B9,AGXI4,AGXI4,3IXQG4FA22ZT50U3ADA9JW2JRNC9B9,3IXQG4FA22ZT50U3ADA9JW2JRNC9B9,338054,338054,3,0.06,"[{""page_index"":0,""viewing_time"":4414.899999856949}]",4415.099999904633,"""","""","""","""","""","""","""","""","""","""","2021-12-31 03:31:58",67.158.16.226,"Mozilla/5.0 (Windows NT 10.0; Win64; x64) AppleWebKit/537.36 (KHTML, like Gecko) Chrome/96.0.4664.110 Safari/537.36",WebKit,Chrome,96.0.4664.110,Windows,10.0,ac0f2dffeffaa78d35a552e03d03f0a8
16,3,"""",practice_procedure,fixation,html-keyboard-response,9,106099,0.0-9.0-0.0-0.0,3SD15I2WEBVYX2RZ7BNPTJHHA9P63F,A2196WCNDZULFS,3IXQG4FA22ZT50U3ADA9JW2JRNC9B9,AGXI4,AGXI4,3IXQG4FA22ZT50U3ADA9JW2JRNC9B9,3IXQG4FA22ZT50U3ADA9JW2JRNC9B9,338054,338054,3,0.06,"""",null,null,"<div class = fixationbox><div class = fixation>+</div></div>","""","""","""","""","""","""","""","""","2021-12-31 03:31:58",67.158.16.226,"Mozilla/5.0 (Windows NT 10.0; Win64; x64) AppleWebKit/537.36 (KHTML, like Gecko) Chrome/96.0.4664.110 Safari/537.36",WebKit,Chrome,96.0.4664.110,Windows,10.0,ac0f2dffeffaa78d35a552e03d03f0a8
16,3,"""",practice_procedure,stim_practice,canvas-button-response,10,107532,0.0-9.0-0.0-1.0,3SD15I2WEBVYX2RZ7BNPTJHHA9P63F,A2196WCNDZULFS,3IXQG4FA22ZT50U3ADA9JW2JRNC9B9,AGXI4,AGXI4,3IXQG4FA22ZT50U3ADA9JW2JRNC9B9,3IXQG4FA22ZT50U3ADA9JW2JRNC9B9,338054,338054,3,0.06,"""",1358.1000001430511,0,practiceStim4,0,Counter-clockwise,true,"""",0.3,120,0.99,"""","2021-12-31 03:31:58",67.158.16.226,"Mozilla/5.0 (Windows NT 10.0; Win64; x64) AppleWebKit/537.36 (KHTML, like Gecko) Chrome/96.0.4664.110 Safari/537.36",WebKit,Chrome,96.0.4664.110,Windows,10.0,ac0f2dffeffaa78d35a552e03d03f0a8
16,3,"""",practice_procedure,confidence_rating,html-slider-response,11,111060,0.0-9.0-0.0-2.0,3SD15I2WEBVYX2RZ7BNPTJHHA9P63F,A2196WCNDZULFS,3IXQG4FA22ZT50U3ADA9JW2JRNC9B9,AGXI4,AGXI4,3IXQG4FA22ZT50U3ADA9JW2JRNC9B9,3IXQG4FA22ZT50U3ADA9JW2JRNC9B9,338054,338054,3,0.06,"""",3527,99,"<div id=""message-div""><p>How confident are you that your clockwise/counter-clockwise response just now was accurate? Please rate your confidence on the slider bar below.</p></div>","""","""","""",50,"""","""","""",99,"2021-12-31 03:31:58",67.158.16.226,"Mozilla/5.0 (Windows NT 10.0; Win64; x64) AppleWebKit/537.36 (KHTML, like Gecko) Chrome/96.0.4664.110 Safari/537.36",WebKit,Chrome,96.0.4664.110,Windows,10.0,ac0f2dffeffaa78d35a552e03d03f0a8
16,3,"""",practice_procedure,fixation,html-keyboard-response,12,111563,0.0-9.0-0.0-0.1,3SD15I2WEBVYX2RZ7BNPTJHHA9P63F,A2196WCNDZULFS,3IXQG4FA22ZT50U3ADA9JW2JRNC9B9,AGXI4,AGXI4,3IXQG4FA22ZT50U3ADA9JW2JRNC9B9,3IXQG4FA22ZT50U3ADA9JW2JRNC9B9,338054,338054,3,0.06,"""",null,null,"<div class = fixationbox><div class = fixation>+</div></div>","""","""","""","""","""","""","""","""","2021-12-31 03:31:58",67.158.16.226,"Mozilla/5.0 (Windows NT 10.0; Win64; x64) AppleWebKit/537.36 (KHTML, like Gecko) Chrome/96.0.4664.110 Safari/537.36",WebKit,Chrome,96.0.4664.110,Windows,10.0,ac0f2dffeffaa78d35a552e03d03f0a8
16,3,"""",practice_procedure,stim_practice,canvas-button-response,13,112964,0.0-9.0-0.0-1.1,3SD15I2WEBVYX2RZ7BNPTJHHA9P63F,A2196WCNDZULFS,3IXQG4FA22ZT50U3ADA9JW2JRNC9B9,AGXI4,AGXI4,3IXQG4FA22ZT50U3ADA9JW2JRNC9B9,3IXQG4FA22ZT50U3ADA9JW2JRNC9B9,338054,338054,3,0.06,"""",1324.5,0,practiceStim2,0,Counter-clockwise,true,"""",0.01,120,0.99,"""","2021-12-31 03:31:58",67.158.16.226,"Mozilla/5.0 (Windows NT 10.0; Win64; x64) AppleWebKit/537.36 (KHTML, like Gecko) Chrome/96.0.4664.110 Safari/537.36",WebKit,Chrome,96.0.4664.110,Windows,10.0,ac0f2dffeffaa78d35a552e03d03f0a8
16,3,"""",practice_procedure,confidence_rating,html-slider-response,14,115644,0.0-9.0-0.0-2.1,3SD15I2WEBVYX2RZ7BNPTJHHA9P63F,A2196WCNDZULFS,3IXQG4FA22ZT50U3ADA9JW2JRNC9B9,AGXI4,AGXI4,3IXQG4FA22ZT50U3ADA9JW2JRNC9B9,3IXQG4FA22ZT50U3ADA9JW2JRNC9B9,338054,338054,3,0.06,"""",2679,89,"<div id=""message-div""><p>How confident are you that your clockwise/counter-clockwise response just now was accurate? Please rate your confidence on the slider bar below.</p></div>","""","""","""",50,"""","""","""",89,"2021-12-31 03:31:58",67.158.16.226,"Mozilla/5.0 (Windows NT 10.0; Win64; x64) AppleWebKit/537.36 (KHTML, like Gecko) Chrome/96.0.4664.110 Safari/537.36",WebKit,Chrome,96.0.4664.110,Windows,10.0,ac0f2dffeffaa78d35a552e03d03f0a8
16,3,"""",practice_procedure,fixation,html-keyboard-response,15,116146,0.0-9.0-0.0-0.2,3SD15I2WEBVYX2RZ7BNPTJHHA9P63F,A2196WCNDZULFS,3IXQG4FA22ZT50U3ADA9JW2JRNC9B9,AGXI4,AGXI4,3IXQG4FA22ZT50U3ADA9JW2JRNC9B9,3IXQG4FA22ZT50U3ADA9JW2JRNC9B9,338054,338054,3,0.06,"""",null,null,"<div class = fixationbox><div class = fixation>+</div></div>","""","""","""","""","""","""","""","""","2021-12-31 03:31:58",67.158.16.226,"Mozilla/5.0 (Windows NT 10.0; Win64; x64) AppleWebKit/537.36 (KHTML, like Gecko) Chrome/96.0.4664.110 Safari/537.36",WebKit,Chrome,96.0.4664.110,Windows,10.0,ac0f2dffeffaa78d35a552e03d03f0a8
16,3,"""",practice_procedure,stim_practice,canvas-button-response,16,117524,0.0-9.0-0.0-1.2,3SD15I2WEBVYX2RZ7BNPTJHHA9P63F,A2196WCNDZULFS,3IXQG4FA22ZT50U3ADA9JW2JRNC9B9,AGXI4,AGXI4,3IXQG4FA22ZT50U3ADA9JW2JRNC9B9,3IXQG4FA22ZT50U3ADA9JW2JRNC9B9,338054,338054,3,0.06,"""",1276.3999998569489,1,practiceStim3,1,Clockwise,true,"""",0.3,60,0.99,"""","2021-12-31 03:31:58",67.158.16.226,"Mozilla/5.0 (Windows NT 10.0; Win64; x64) AppleWebKit/537.36 (KHTML, like Gecko) Chrome/96.0.4664.110 Safari/537.36",WebKit,Chrome,96.0.4664.110,Windows,10.0,ac0f2dffeffaa78d35a552e03d03f0a8
16,3,"""",practice_procedure,confidence_rating,html-slider-response,17,120324,0.0-9.0-0.0-2.2,3SD15I2WEBVYX2RZ7BNPTJHHA9P63F,A2196WCNDZULFS,3IXQG4FA22ZT50U3ADA9JW2JRNC9B9,AGXI4,AGXI4,3IXQG4FA22ZT50U3ADA9JW2JRNC9B9,3IXQG4FA22ZT50U3ADA9JW2JRNC9B9,338054,338054,3,0.06,"""",2798,90,"<div id=""message-div""><p>How confident are you that your clockwise/counter-clockwise response just now was accurate? Please rate your confidence on the slider bar below.</p></div>","""","""","""",50,"""","""","""",90,"2021-12-31 03:31:58",67.158.16.226,"Mozilla/5.0 (Windows NT 10.0; Win64; x64) AppleWebKit/537.36 (KHTML, like Gecko) Chrome/96.0.4664.110 Safari/537.36",WebKit,Chrome,96.0.4664.110,Windows,10.0,ac0f2dffeffaa78d35a552e03d03f0a8
16,3,"""",practice_procedure,fixation,html-keyboard-response,18,120825,0.0-9.0-0.0-0.3,3SD15I2WEBVYX2RZ7BNPTJHHA9P63F,A2196WCNDZULFS,3IXQG4FA22ZT50U3ADA9JW2JRNC9B9,AGXI4,AGXI4,3IXQG4FA22ZT50U3ADA9JW2JRNC9B9,3IXQG4FA22ZT50U3ADA9JW2JRNC9B9,338054,338054,3,0.06,"""",null,null,"<div class = fixationbox><div class = fixation>+</div></div>","""","""","""","""","""","""","""","""","2021-12-31 03:31:58",67.158.16.226,"Mozilla/5.0 (Windows NT 10.0; Win64; x64) AppleWebKit/537.36 (KHTML, like Gecko) Chrome/96.0.4664.110 Safari/537.36",WebKit,Chrome,96.0.4664.110,Windows,10.0,ac0f2dffeffaa78d35a552e03d03f0a8
16,3,"""",practice_procedure,stim_practice,canvas-button-response,19,122020,0.0-9.0-0.0-1.3,3SD15I2WEBVYX2RZ7BNPTJHHA9P63F,A2196WCNDZULFS,3IXQG4FA22ZT50U3ADA9JW2JRNC9B9,AGXI4,AGXI4,3IXQG4FA22ZT50U3ADA9JW2JRNC9B9,3IXQG4FA22ZT50U3ADA9JW2JRNC9B9,338054,338054,3,0.06,"""",1117.7000000476837,1,practiceStim1,1,Clockwise,true,"""",0.01,60,0.99,"""","2021-12-31 03:31:58",67.158.16.226,"Mozilla/5.0 (Windows NT 10.0; Win64; x64) AppleWebKit/537.36 (KHTML, like Gecko) Chrome/96.0.4664.110 Safari/537.36",WebKit,Chrome,96.0.4664.110,Windows,10.0,ac0f2dffeffaa78d35a552e03d03f0a8
16,3,"""",practice_procedure,confidence_rating,html-slider-response,20,124692,0.0-9.0-0.0-2.3,3SD15I2WEBVYX2RZ7BNPTJHHA9P63F,A2196WCNDZULFS,3IXQG4FA22ZT50U3ADA9JW2JRNC9B9,AGXI4,AGXI4,3IXQG4FA22ZT50U3ADA9JW2JRNC9B9,3IXQG4FA22ZT50U3ADA9JW2JRNC9B9,338054,338054,3,0.06,"""",2671.4000000953674,94,"<div id=""message-div""><p>How confident are you that your clockwise/counter-clockwise response just now was accurate? Please rate your confidence on the slider bar below.</p></div>","""","""","""",50,"""","""","""",94,"2021-12-31 03:31:58",67.158.16.226,"Mozilla/5.0 (Windows NT 10.0; Win64; x64) AppleWebKit/537.36 (KHTML, like Gecko) Chrome/96.0.4664.110 Safari/537.36",WebKit,Chrome,96.0.4664.110,Windows,10.0,ac0f2dffeffaa78d35a552e03d03f0a8
16,3,"""",practice_procedure,fixation,html-keyboard-response,21,125194,0.0-9.0-0.0-0.4,3SD15I2WEBVYX2RZ7BNPTJHHA9P63F,A2196WCNDZULFS,3IXQG4FA22ZT50U3ADA9JW2JRNC9B9,AGXI4,AGXI4,3IXQG4FA22ZT50U3ADA9JW2JRNC9B9,3IXQG4FA22ZT50U3ADA9JW2JRNC9B9,338054,338054,3,0.06,"""",null,null,"<div class = fixationbox><div class = fixation>+</div></div>","""","""","""","""","""","""","""","""","2021-12-31 03:31:58",67.158.16.226,"Mozilla/5.0 (Windows NT 10.0; Win64; x64) AppleWebKit/537.36 (KHTML, like Gecko) Chrome/96.0.4664.110 Safari/537.36",WebKit,Chrome,96.0.4664.110,Windows,10.0,ac0f2dffeffaa78d35a552e03d03f0a8
16,3,"""",practice_procedure,stim_practice,canvas-button-response,22,126324,0.0-9.0-0.0-1.4,3SD15I2WEBVYX2RZ7BNPTJHHA9P63F,A2196WCNDZULFS,3IXQG4FA22ZT50U3ADA9JW2JRNC9B9,AGXI4,AGXI4,3IXQG4FA22ZT50U3ADA9JW2JRNC9B9,3IXQG4FA22ZT50U3ADA9JW2JRNC9B9,338054,338054,3,0.06,"""",1067.5,0,practiceStim4,0,Counter-clockwise,true,"""",0.3,120,0.99,"""","2021-12-31 03:31:58",67.158.16.226,"Mozilla/5.0 (Windows NT 10.0; Win64; x64) AppleWebKit/537.36 (KHTML, like Gecko) Chrome/96.0.4664.110 Safari/537.36",WebKit,Chrome,96.0.4664.110,Windows,10.0,ac0f2dffeffaa78d35a552e03d03f0a8
16,3,"""",practice_procedure,confidence_rating,html-slider-response,23,131308,0.0-9.0-0.0-2.4,3SD15I2WEBVYX2RZ7BNPTJHHA9P63F,A2196WCNDZULFS,3IXQG4FA22ZT50U3ADA9JW2JRNC9B9,AGXI4,AGXI4,3IXQG4FA22ZT50U3ADA9JW2JRNC9B9,3IXQG4FA22ZT50U3ADA9JW2JRNC9B9,338054,338054,3,0.06,"""",4983,98,"<div id=""message-div""><p>How confident are you that your clockwise/counter-clockwise response just now was accurate? Please rate your confidence on the slider bar below.</p></div>","""","""","""",50,"""","""","""",98,"2021-12-31 03:31:58",67.158.16.226,"Mozilla/5.0 (Windows NT 10.0; Win64; x64) AppleWebKit/537.36 (KHTML, like Gecko) Chrome/96.0.4664.110 Safari/537.36",WebKit,Chrome,96.0.4664.110,Windows,10.0,ac0f2dffeffaa78d35a552e03d03f0a8
16,3,"""",practice_procedure,fixation,html-keyboard-response,24,131811,0.0-9.0-0.0-0.5,3SD15I2WEBVYX2RZ7BNPTJHHA9P63F,A2196WCNDZULFS,3IXQG4FA22ZT50U3ADA9JW2JRNC9B9,AGXI4,AGXI4,3IXQG4FA22ZT50U3ADA9JW2JRNC9B9,3IXQG4FA22ZT50U3ADA9JW2JRNC9B9,338054,338054,3,0.06,"""",null,null,"<div class = fixationbox><div class = fixation>+</div></div>","""","""","""","""","""","""","""","""","2021-12-31 03:31:58",67.158.16.226,"Mozilla/5.0 (Windows NT 10.0; Win64; x64) AppleWebKit/537.36 (KHTML, like Gecko) Chrome/96.0.4664.110 Safari/537.36",WebKit,Chrome,96.0.4664.110,Windows,10.0,ac0f2dffeffaa78d35a552e03d03f0a8
16,3,"""",practice_procedure,stim_practice,canvas-button-response,25,133028,0.0-9.0-0.0-1.5,3SD15I2WEBVYX2RZ7BNPTJHHA9P63F,A2196WCNDZULFS,3IXQG4FA22ZT50U3ADA9JW2JRNC9B9,AGXI4,AGXI4,3IXQG4FA22ZT50U3ADA9JW2JRNC9B9,3IXQG4FA22ZT50U3ADA9JW2JRNC9B9,338054,338054,3,0.06,"""",1136.6000001430511,1,practiceStim1,1,Clockwise,true,"""",0.01,60,0.99,"""","2021-12-31 03:31:58",67.158.16.226,"Mozilla/5.0 (Windows NT 10.0; Win64; x64) AppleWebKit/537.36 (KHTML, like Gecko) Chrome/96.0.4664.110 Safari/537.36",WebKit,Chrome,96.0.4664.110,Windows,10.0,ac0f2dffeffaa78d35a552e03d03f0a8
16,3,"""",practice_procedure,confidence_rating,html-slider-response,26,136692,0.0-9.0-0.0-2.5,3SD15I2WEBVYX2RZ7BNPTJHHA9P63F,A2196WCNDZULFS,3IXQG4FA22ZT50U3ADA9JW2JRNC9B9,AGXI4,AGXI4,3IXQG4FA22ZT50U3ADA9JW2JRNC9B9,3IXQG4FA22ZT50U3ADA9JW2JRNC9B9,338054,338054,3,0.06,"""",3663.100000143051,86,"<div id=""message-div""><p>How confident are you that your clockwise/counter-clockwise response just now was accurate? Please rate your confidence on the slider bar below.</p></div>","""","""","""",50,"""","""","""",86,"2021-12-31 03:31:58",67.158.16.226,"Mozilla/5.0 (Windows NT 10.0; Win64; x64) AppleWebKit/537.36 (KHTML, like Gecko) Chrome/96.0.4664.110 Safari/537.36",WebKit,Chrome,96.0.4664.110,Windows,10.0,ac0f2dffeffaa78d35a552e03d03f0a8
16,3,"""",practice_procedure,fixation,html-keyboard-response,27,137195,0.0-9.0-0.0-0.6,3SD15I2WEBVYX2RZ7BNPTJHHA9P63F,A2196WCNDZULFS,3IXQG4FA22ZT50U3ADA9JW2JRNC9B9,AGXI4,AGXI4,3IXQG4FA22ZT50U3ADA9JW2JRNC9B9,3IXQG4FA22ZT50U3ADA9JW2JRNC9B9,338054,338054,3,0.06,"""",null,null,"<div class = fixationbox><div class = fixation>+</div></div>","""","""","""","""","""","""","""","""","2021-12-31 03:31:58",67.158.16.226,"Mozilla/5.0 (Windows NT 10.0; Win64; x64) AppleWebKit/537.36 (KHTML, like Gecko) Chrome/96.0.4664.110 Safari/537.36",WebKit,Chrome,96.0.4664.110,Windows,10.0,ac0f2dffeffaa78d35a552e03d03f0a8
16,3,"""",practice_procedure,stim_practice,canvas-button-response,28,138540,0.0-9.0-0.0-1.6,3SD15I2WEBVYX2RZ7BNPTJHHA9P63F,A2196WCNDZULFS,3IXQG4FA22ZT50U3ADA9JW2JRNC9B9,AGXI4,AGXI4,3IXQG4FA22ZT50U3ADA9JW2JRNC9B9,3IXQG4FA22ZT50U3ADA9JW2JRNC9B9,338054,338054,3,0.06,"""",1280.1000001430511,0,practiceStim4,0,Counter-clockwise,true,"""",0.3,120,0.99,"""","2021-12-31 03:31:58",67.158.16.226,"Mozilla/5.0 (Windows NT 10.0; Win64; x64) AppleWebKit/537.36 (KHTML, like Gecko) Chrome/96.0.4664.110 Safari/537.36",WebKit,Chrome,96.0.4664.110,Windows,10.0,ac0f2dffeffaa78d35a552e03d03f0a8
16,3,"""",practice_procedure,confidence_rating,html-slider-response,29,140852,0.0-9.0-0.0-2.6,3SD15I2WEBVYX2RZ7BNPTJHHA9P63F,A2196WCNDZULFS,3IXQG4FA22ZT50U3ADA9JW2JRNC9B9,AGXI4,AGXI4,3IXQG4FA22ZT50U3ADA9JW2JRNC9B9,3IXQG4FA22ZT50U3ADA9JW2JRNC9B9,338054,338054,3,0.06,"""",2311,61,"<div id=""message-div""><p>How confident are you that your clockwise/counter-clockwise response just now was accurate? Please rate your confidence on the slider bar below.</p></div>","""","""","""",50,"""","""","""",61,"2021-12-31 03:31:58",67.158.16.226,"Mozilla/5.0 (Windows NT 10.0; Win64; x64) AppleWebKit/537.36 (KHTML, like Gecko) Chrome/96.0.4664.110 Safari/537.36",WebKit,Chrome,96.0.4664.110,Windows,10.0,ac0f2dffeffaa78d35a552e03d03f0a8
16,3,"""",practice_procedure,fixation,html-keyboard-response,30,141354,0.0-9.0-0.0-0.7,3SD15I2WEBVYX2RZ7BNPTJHHA9P63F,A2196WCNDZULFS,3IXQG4FA22ZT50U3ADA9JW2JRNC9B9,AGXI4,AGXI4,3IXQG4FA22ZT50U3ADA9JW2JRNC9B9,3IXQG4FA22ZT50U3ADA9JW2JRNC9B9,338054,338054,3,0.06,"""",null,null,"<div class = fixationbox><div class = fixation>+</div></div>","""","""","""","""","""","""","""","""","2021-12-31 03:31:58",67.158.16.226,"Mozilla/5.0 (Windows NT 10.0; Win64; x64) AppleWebKit/537.36 (KHTML, like Gecko) Chrome/96.0.4664.110 Safari/537.36",WebKit,Chrome,96.0.4664.110,Windows,10.0,ac0f2dffeffaa78d35a552e03d03f0a8
16,3,"""",practice_procedure,stim_practice,canvas-button-response,31,142964,0.0-9.0-0.0-1.7,3SD15I2WEBVYX2RZ7BNPTJHHA9P63F,A2196WCNDZULFS,3IXQG4FA22ZT50U3ADA9JW2JRNC9B9,AGXI4,AGXI4,3IXQG4FA22ZT50U3ADA9JW2JRNC9B9,3IXQG4FA22ZT50U3ADA9JW2JRNC9B9,338054,338054,3,0.06,"""",1545.7000000476837,0,practiceStim2,0,Counter-clockwise,true,"""",0.01,120,0.99,"""","2021-12-31 03:31:58",67.158.16.226,"Mozilla/5.0 (Windows NT 10.0; Win64; x64) AppleWebKit/537.36 (KHTML, like Gecko) Chrome/96.0.4664.110 Safari/537.36",WebKit,Chrome,96.0.4664.110,Windows,10.0,ac0f2dffeffaa78d35a552e03d03f0a8
16,3,"""",practice_procedure,confidence_rating,html-slider-response,32,145764,0.0-9.0-0.0-2.7,3SD15I2WEBVYX2RZ7BNPTJHHA9P63F,A2196WCNDZULFS,3IXQG4FA22ZT50U3ADA9JW2JRNC9B9,AGXI4,AGXI4,3IXQG4FA22ZT50U3ADA9JW2JRNC9B9,3IXQG4FA22ZT50U3ADA9JW2JRNC9B9,338054,338054,3,0.06,"""",2797.399999856949,43,"<div id=""message-div""><p>How confident are you that your clockwise/counter-clockwise response just now was accurate? Please rate your confidence on the slider bar below.</p></div>","""","""","""",50,"""","""","""",43,"2021-12-31 03:31:58",67.158.16.226,"Mozilla/5.0 (Windows NT 10.0; Win64; x64) AppleWebKit/537.36 (KHTML, like Gecko) Chrome/96.0.4664.110 Safari/537.36",WebKit,Chrome,96.0.4664.110,Windows,10.0,ac0f2dffeffaa78d35a552e03d03f0a8
16,3,"""",practice_procedure,fixation,html-keyboard-response,33,146265,0.0-9.0-0.0-0.8,3SD15I2WEBVYX2RZ7BNPTJHHA9P63F,A2196WCNDZULFS,3IXQG4FA22ZT50U3ADA9JW2JRNC9B9,AGXI4,AGXI4,3IXQG4FA22ZT50U3ADA9JW2JRNC9B9,3IXQG4FA22ZT50U3ADA9JW2JRNC9B9,338054,338054,3,0.06,"""",null,null,"<div class = fixationbox><div class = fixation>+</div></div>","""","""","""","""","""","""","""","""","2021-12-31 03:31:58",67.158.16.226,"Mozilla/5.0 (Windows NT 10.0; Win64; x64) AppleWebKit/537.36 (KHTML, like Gecko) Chrome/96.0.4664.110 Safari/537.36",WebKit,Chrome,96.0.4664.110,Windows,10.0,ac0f2dffeffaa78d35a552e03d03f0a8
16,3,"""",practice_procedure,stim_practice,canvas-button-response,34,147500,0.0-9.0-0.0-1.8,3SD15I2WEBVYX2RZ7BNPTJHHA9P63F,A2196WCNDZULFS,3IXQG4FA22ZT50U3ADA9JW2JRNC9B9,AGXI4,AGXI4,3IXQG4FA22ZT50U3ADA9JW2JRNC9B9,3IXQG4FA22ZT50U3ADA9JW2JRNC9B9,338054,338054,3,0.06,"""",1163,1,practiceStim3,1,Clockwise,true,"""",0.3,60,0.99,"""","2021-12-31 03:31:58",67.158.16.226,"Mozilla/5.0 (Windows NT 10.0; Win64; x64) AppleWebKit/537.36 (KHTML, like Gecko) Chrome/96.0.4664.110 Safari/537.36",WebKit,Chrome,96.0.4664.110,Windows,10.0,ac0f2dffeffaa78d35a552e03d03f0a8
16,3,"""",practice_procedure,confidence_rating,html-slider-response,35,151052,0.0-9.0-0.0-2.8,3SD15I2WEBVYX2RZ7BNPTJHHA9P63F,A2196WCNDZULFS,3IXQG4FA22ZT50U3ADA9JW2JRNC9B9,AGXI4,AGXI4,3IXQG4FA22ZT50U3ADA9JW2JRNC9B9,3IXQG4FA22ZT50U3ADA9JW2JRNC9B9,338054,338054,3,0.06,"""",3551,78,"<div id=""message-div""><p>How confident are you that your clockwise/counter-clockwise response just now was accurate? Please rate your confidence on the slider bar below.</p></div>","""","""","""",50,"""","""","""",78,"2021-12-31 03:31:58",67.158.16.226,"Mozilla/5.0 (Windows NT 10.0; Win64; x64) AppleWebKit/537.36 (KHTML, like Gecko) Chrome/96.0.4664.110 Safari/537.36",WebKit,Chrome,96.0.4664.110,Windows,10.0,ac0f2dffeffaa78d35a552e03d03f0a8
16,3,"""",practice_procedure,fixation,html-keyboard-response,36,151555,0.0-9.0-0.0-0.9,3SD15I2WEBVYX2RZ7BNPTJHHA9P63F,A2196WCNDZULFS,3IXQG4FA22ZT50U3ADA9JW2JRNC9B9,AGXI4,AGXI4,3IXQG4FA22ZT50U3ADA9JW2JRNC9B9,3IXQG4FA22ZT50U3ADA9JW2JRNC9B9,338054,338054,3,0.06,"""",null,null,"<div class = fixationbox><div class = fixation>+</div></div>","""","""","""","""","""","""","""","""","2021-12-31 03:31:58",67.158.16.226,"Mozilla/5.0 (Windows NT 10.0; Win64; x64) AppleWebKit/537.36 (KHTML, like Gecko) Chrome/96.0.4664.110 Safari/537.36",WebKit,Chrome,96.0.4664.110,Windows,10.0,ac0f2dffeffaa78d35a552e03d03f0a8
16,3,"""",practice_procedure,stim_practice,canvas-button-response,37,152692,0.0-9.0-0.0-1.9,3SD15I2WEBVYX2RZ7BNPTJHHA9P63F,A2196WCNDZULFS,3IXQG4FA22ZT50U3ADA9JW2JRNC9B9,AGXI4,AGXI4,3IXQG4FA22ZT50U3ADA9JW2JRNC9B9,3IXQG4FA22ZT50U3ADA9JW2JRNC9B9,338054,338054,3,0.06,"""",1060.1000001430511,0,practiceStim2,0,Counter-clockwise,true,"""",0.01,120,0.99,"""","2021-12-31 03:31:58",67.158.16.226,"Mozilla/5.0 (Windows NT 10.0; Win64; x64) AppleWebKit/537.36 (KHTML, like Gecko) Chrome/96.0.4664.110 Safari/537.36",WebKit,Chrome,96.0.4664.110,Windows,10.0,ac0f2dffeffaa78d35a552e03d03f0a8
16,3,"""",practice_procedure,confidence_rating,html-slider-response,38,155564,0.0-9.0-0.0-2.9,3SD15I2WEBVYX2RZ7BNPTJHHA9P63F,A2196WCNDZULFS,3IXQG4FA22ZT50U3ADA9JW2JRNC9B9,AGXI4,AGXI4,3IXQG4FA22ZT50U3ADA9JW2JRNC9B9,3IXQG4FA22ZT50U3ADA9JW2JRNC9B9,338054,338054,3,0.06,"""",2871,62,"<div id=""message-div""><p>How confident are you that your clockwise/counter-clockwise response just now was accurate? Please rate your confidence on the slider bar below.</p></div>","""","""","""",50,"""","""","""",62,"2021-12-31 03:31:58",67.158.16.226,"Mozilla/5.0 (Windows NT 10.0; Win64; x64) AppleWebKit/537.36 (KHTML, like Gecko) Chrome/96.0.4664.110 Safari/537.36",WebKit,Chrome,96.0.4664.110,Windows,10.0,ac0f2dffeffaa78d35a552e03d03f0a8
16,3,"""",pre-test,test_instruction,instructions,39,168444,0.0-10.0,3SD15I2WEBVYX2RZ7BNPTJHHA9P63F,A2196WCNDZULFS,3IXQG4FA22ZT50U3ADA9JW2JRNC9B9,AGXI4,AGXI4,3IXQG4FA22ZT50U3ADA9JW2JRNC9B9,3IXQG4FA22ZT50U3ADA9JW2JRNC9B9,338054,338054,3,0.06,"[{""page_index"":0,""viewing_time"":12878.400000095367}]",12878.600000143051,"""","""","""","""","""","""","""","""","""","""","2021-12-31 03:31:58",67.158.16.226,"Mozilla/5.0 (Windows NT 10.0; Win64; x64) AppleWebKit/537.36 (KHTML, like Gecko) Chrome/96.0.4664.110 Safari/537.36",WebKit,Chrome,96.0.4664.110,Windows,10.0,ac0f2dffeffaa78d35a552e03d03f0a8
16,3,"""",test_procedure,fixation,html-keyboard-response,40,168958,0.0-11.0-0.0-0.0,3SD15I2WEBVYX2RZ7BNPTJHHA9P63F,A2196WCNDZULFS,3IXQG4FA22ZT50U3ADA9JW2JRNC9B9,AGXI4,AGXI4,3IXQG4FA22ZT50U3ADA9JW2JRNC9B9,3IXQG4FA22ZT50U3ADA9JW2JRNC9B9,338054,338054,3,0.06,"""",null,null,"<div class = fixationbox><div class = fixation>+</div></div>","""","""","""","""","""","""","""","""","2021-12-31 03:31:58",67.158.16.226,"Mozilla/5.0 (Windows NT 10.0; Win64; x64) AppleWebKit/537.36 (KHTML, like Gecko) Chrome/96.0.4664.110 Safari/537.36",WebKit,Chrome,96.0.4664.110,Windows,10.0,ac0f2dffeffaa78d35a552e03d03f0a8
16,3,"""",test_procedure,stim_test,canvas-button-response,41,170916,0.0-11.0-0.0-1.0,3SD15I2WEBVYX2RZ7BNPTJHHA9P63F,A2196WCNDZULFS,3IXQG4FA22ZT50U3ADA9JW2JRNC9B9,AGXI4,AGXI4,3IXQG4FA22ZT50U3ADA9JW2JRNC9B9,3IXQG4FA22ZT50U3ADA9JW2JRNC9B9,338054,338054,3,0.06,"""",1861.4000000953674,1,catchStim3,1,Clockwise,true,"""",0.01,60,0.001,"""","2021-12-31 03:31:58",67.158.16.226,"Mozilla/5.0 (Windows NT 10.0; Win64; x64) AppleWebKit/537.36 (KHTML, like Gecko) Chrome/96.0.4664.110 Safari/537.36",WebKit,Chrome,96.0.4664.110,Windows,10.0,ac0f2dffeffaa78d35a552e03d03f0a8
16,3,"""",test_procedure,confidence_rating,html-slider-response,42,173988,0.0-11.0-0.0-2.0,3SD15I2WEBVYX2RZ7BNPTJHHA9P63F,A2196WCNDZULFS,3IXQG4FA22ZT50U3ADA9JW2JRNC9B9,AGXI4,AGXI4,3IXQG4FA22ZT50U3ADA9JW2JRNC9B9,3IXQG4FA22ZT50U3ADA9JW2JRNC9B9,338054,338054,3,0.06,"""",3070.9000000953674,4,"<div id=""message-div""><p>How confident are you that your clockwise/counter-clockwise response just now was accurate? Please rate your confidence on the slider bar below.</p></div>","""","""","""",50,"""","""","""",4,"2021-12-31 03:31:58",67.158.16.226,"Mozilla/5.0 (Windows NT 10.0; Win64; x64) AppleWebKit/537.36 (KHTML, like Gecko) Chrome/96.0.4664.110 Safari/537.36",WebKit,Chrome,96.0.4664.110,Windows,10.0,ac0f2dffeffaa78d35a552e03d03f0a8
16,3,"""",test_procedure,fixation,html-keyboard-response,43,174492,0.0-11.0-0.0-0.1,3SD15I2WEBVYX2RZ7BNPTJHHA9P63F,A2196WCNDZULFS,3IXQG4FA22ZT50U3ADA9JW2JRNC9B9,AGXI4,AGXI4,3IXQG4FA22ZT50U3ADA9JW2JRNC9B9,3IXQG4FA22ZT50U3ADA9JW2JRNC9B9,338054,338054,3,0.06,"""",null,null,"<div class = fixationbox><div class = fixation>+</div></div>","""","""","""","""","""","""","""","""","2021-12-31 03:31:58",67.158.16.226,"Mozilla/5.0 (Windows NT 10.0; Win64; x64) AppleWebKit/537.36 (KHTML, like Gecko) Chrome/96.0.4664.110 Safari/537.36",WebKit,Chrome,96.0.4664.110,Windows,10.0,ac0f2dffeffaa78d35a552e03d03f0a8
16,3,"""",test_procedure,stim_test,canvas-button-response,44,175628,0.0-11.0-0.0-1.1,3SD15I2WEBVYX2RZ7BNPTJHHA9P63F,A2196WCNDZULFS,3IXQG4FA22ZT50U3ADA9JW2JRNC9B9,AGXI4,AGXI4,3IXQG4FA22ZT50U3ADA9JW2JRNC9B9,3IXQG4FA22ZT50U3ADA9JW2JRNC9B9,338054,338054,3,0.06,"""",1072.3999998569489,0,catchStim2,0,Counter-clockwise,true,"""",0.01,120,0.6,"""","2021-12-31 03:31:58",67.158.16.226,"Mozilla/5.0 (Windows NT 10.0; Win64; x64) AppleWebKit/537.36 (KHTML, like Gecko) Chrome/96.0.4664.110 Safari/537.36",WebKit,Chrome,96.0.4664.110,Windows,10.0,ac0f2dffeffaa78d35a552e03d03f0a8
16,3,"""",test_procedure,confidence_rating,html-slider-response,45,178124,0.0-11.0-0.0-2.1,3SD15I2WEBVYX2RZ7BNPTJHHA9P63F,A2196WCNDZULFS,3IXQG4FA22ZT50U3ADA9JW2JRNC9B9,AGXI4,AGXI4,3IXQG4FA22ZT50U3ADA9JW2JRNC9B9,3IXQG4FA22ZT50U3ADA9JW2JRNC9B9,338054,338054,3,0.06,"""",2495.0999999046326,97,"<div id=""message-div""><p>How confident are you that your clockwise/counter-clockwise response just now was accurate? Please rate your confidence on the slider bar below.</p></div>","""","""","""",50,"""","""","""",97,"2021-12-31 03:31:58",67.158.16.226,"Mozilla/5.0 (Windows NT 10.0; Win64; x64) AppleWebKit/537.36 (KHTML, like Gecko) Chrome/96.0.4664.110 Safari/537.36",WebKit,Chrome,96.0.4664.110,Windows,10.0,ac0f2dffeffaa78d35a552e03d03f0a8
16,3,"""",test_procedure,fixation,html-keyboard-response,46,178626,0.0-11.0-0.0-0.2,3SD15I2WEBVYX2RZ7BNPTJHHA9P63F,A2196WCNDZULFS,3IXQG4FA22ZT50U3ADA9JW2JRNC9B9,AGXI4,AGXI4,3IXQG4FA22ZT50U3ADA9JW2JRNC9B9,3IXQG4FA22ZT50U3ADA9JW2JRNC9B9,338054,338054,3,0.06,"""",null,null,"<div class = fixationbox><div class = fixation>+</div></div>","""","""","""","""","""","""","""","""","2021-12-31 03:31:58",67.158.16.226,"Mozilla/5.0 (Windows NT 10.0; Win64; x64) AppleWebKit/537.36 (KHTML, like Gecko) Chrome/96.0.4664.110 Safari/537.36",WebKit,Chrome,96.0.4664.110,Windows,10.0,ac0f2dffeffaa78d35a552e03d03f0a8
16,3,"""",test_procedure,stim_test,canvas-button-response,47,179844,0.0-11.0-0.0-1.2,3SD15I2WEBVYX2RZ7BNPTJHHA9P63F,A2196WCNDZULFS,3IXQG4FA22ZT50U3ADA9JW2JRNC9B9,AGXI4,AGXI4,3IXQG4FA22ZT50U3ADA9JW2JRNC9B9,3IXQG4FA22ZT50U3ADA9JW2JRNC9B9,338054,338054,3,0.06,"""",1138.2999999523163,1,catchStim5,1,Clockwise,true,"""",0.3,60,0.6,"""","2021-12-31 03:31:58",67.158.16.226,"Mozilla/5.0 (Windows NT 10.0; Win64; x64) AppleWebKit/537.36 (KHTML, like Gecko) Chrome/96.0.4664.110 Safari/537.36",WebKit,Chrome,96.0.4664.110,Windows,10.0,ac0f2dffeffaa78d35a552e03d03f0a8
16,3,"""",test_procedure,confidence_rating,html-slider-response,48,181980,0.0-11.0-0.0-2.2,3SD15I2WEBVYX2RZ7BNPTJHHA9P63F,A2196WCNDZULFS,3IXQG4FA22ZT50U3ADA9JW2JRNC9B9,AGXI4,AGXI4,3IXQG4FA22ZT50U3ADA9JW2JRNC9B9,3IXQG4FA22ZT50U3ADA9JW2JRNC9B9,338054,338054,3,0.06,"""",2133.7999999523163,90,"<div id=""message-div""><p>How confident are you that your clockwise/counter-clockwise response just now was accurate? Please rate your confidence on the slider bar below.</p></div>","""","""","""",50,"""","""","""",90,"2021-12-31 03:31:58",67.158.16.226,"Mozilla/5.0 (Windows NT 10.0; Win64; x64) AppleWebKit/537.36 (KHTML, like Gecko) Chrome/96.0.4664.110 Safari/537.36",WebKit,Chrome,96.0.4664.110,Windows,10.0,ac0f2dffeffaa78d35a552e03d03f0a8
16,3,"""",test_procedure,fixation,html-keyboard-response,49,182496,0.0-11.0-0.0-0.3,3SD15I2WEBVYX2RZ7BNPTJHHA9P63F,A2196WCNDZULFS,3IXQG4FA22ZT50U3ADA9JW2JRNC9B9,AGXI4,AGXI4,3IXQG4FA22ZT50U3ADA9JW2JRNC9B9,3IXQG4FA22ZT50U3ADA9JW2JRNC9B9,338054,338054,3,0.06,"""",null,null,"<div class = fixationbox><div class = fixation>+</div></div>","""","""","""","""","""","""","""","""","2021-12-31 03:31:58",67.158.16.226,"Mozilla/5.0 (Windows NT 10.0; Win64; x64) AppleWebKit/537.36 (KHTML, like Gecko) Chrome/96.0.4664.110 Safari/537.36",WebKit,Chrome,96.0.4664.110,Windows,10.0,ac0f2dffeffaa78d35a552e03d03f0a8
16,3,"""",test_procedure,stim_test,canvas-button-response,50,184460,0.0-11.0-0.0-1.3,3SD15I2WEBVYX2RZ7BNPTJHHA9P63F,A2196WCNDZULFS,3IXQG4FA22ZT50U3ADA9JW2JRNC9B9,AGXI4,AGXI4,3IXQG4FA22ZT50U3ADA9JW2JRNC9B9,3IXQG4FA22ZT50U3ADA9JW2JRNC9B9,338054,338054,3,0.06,"""",1902.2999999523163,0,stim1,1,Clockwise,false,"""",0.01,60,"""","""","2021-12-31 03:31:58",67.158.16.226,"Mozilla/5.0 (Windows NT 10.0; Win64; x64) AppleWebKit/537.36 (KHTML, like Gecko) Chrome/96.0.4664.110 Safari/537.36",WebKit,Chrome,96.0.4664.110,Windows,10.0,ac0f2dffeffaa78d35a552e03d03f0a8
16,3,"""",test_procedure,confidence_rating,html-slider-response,51,187204,0.0-11.0-0.0-2.3,3SD15I2WEBVYX2RZ7BNPTJHHA9P63F,A2196WCNDZULFS,3IXQG4FA22ZT50U3ADA9JW2JRNC9B9,AGXI4,AGXI4,3IXQG4FA22ZT50U3ADA9JW2JRNC9B9,3IXQG4FA22ZT50U3ADA9JW2JRNC9B9,338054,338054,3,0.06,"""",2743.2999999523163,1,"<div id=""message-div""><p>How confident are you that your clockwise/counter-clockwise response just now was accurate? Please rate your confidence on the slider bar below.</p></div>","""","""","""",50,"""","""","""",1,"2021-12-31 03:31:58",67.158.16.226,"Mozilla/5.0 (Windows NT 10.0; Win64; x64) AppleWebKit/537.36 (KHTML, like Gecko) Chrome/96.0.4664.110 Safari/537.36",WebKit,Chrome,96.0.4664.110,Windows,10.0,ac0f2dffeffaa78d35a552e03d03f0a8
16,3,"""",test_procedure,fixation,html-keyboard-response,52,187707,0.0-11.0-0.0-0.4,3SD15I2WEBVYX2RZ7BNPTJHHA9P63F,A2196WCNDZULFS,3IXQG4FA22ZT50U3ADA9JW2JRNC9B9,AGXI4,AGXI4,3IXQG4FA22ZT50U3ADA9JW2JRNC9B9,3IXQG4FA22ZT50U3ADA9JW2JRNC9B9,338054,338054,3,0.06,"""",null,null,"<div class = fixationbox><div class = fixation>+</div></div>","""","""","""","""","""","""","""","""","2021-12-31 03:31:58",67.158.16.226,"Mozilla/5.0 (Windows NT 10.0; Win64; x64) AppleWebKit/537.36 (KHTML, like Gecko) Chrome/96.0.4664.110 Safari/537.36",WebKit,Chrome,96.0.4664.110,Windows,10.0,ac0f2dffeffaa78d35a552e03d03f0a8
16,3,"""",test_procedure,stim_test,canvas-button-response,53,189036,0.0-11.0-0.0-1.4,3SD15I2WEBVYX2RZ7BNPTJHHA9P63F,A2196WCNDZULFS,3IXQG4FA22ZT50U3ADA9JW2JRNC9B9,AGXI4,AGXI4,3IXQG4FA22ZT50U3ADA9JW2JRNC9B9,3IXQG4FA22ZT50U3ADA9JW2JRNC9B9,338054,338054,3,0.06,"""",1262,0,catchStim8,0,Counter-clockwise,true,"""",0.3,120,0.001,"""","2021-12-31 03:31:58",67.158.16.226,"Mozilla/5.0 (Windows NT 10.0; Win64; x64) AppleWebKit/537.36 (KHTML, like Gecko) Chrome/96.0.4664.110 Safari/537.36",WebKit,Chrome,96.0.4664.110,Windows,10.0,ac0f2dffeffaa78d35a552e03d03f0a8
16,3,"""",test_procedure,confidence_rating,html-slider-response,54,191348,0.0-11.0-0.0-2.4,3SD15I2WEBVYX2RZ7BNPTJHHA9P63F,A2196WCNDZULFS,3IXQG4FA22ZT50U3ADA9JW2JRNC9B9,AGXI4,AGXI4,3IXQG4FA22ZT50U3ADA9JW2JRNC9B9,3IXQG4FA22ZT50U3ADA9JW2JRNC9B9,338054,338054,3,0.06,"""",2311.199999809265,0,"<div id=""message-div""><p>How confident are you that your clockwise/counter-clockwise response just now was accurate? Please rate your confidence on the slider bar below.</p></div>","""","""","""",50,"""","""","""",0,"2021-12-31 03:31:58",67.158.16.226,"Mozilla/5.0 (Windows NT 10.0; Win64; x64) AppleWebKit/537.36 (KHTML, like Gecko) Chrome/96.0.4664.110 Safari/537.36",WebKit,Chrome,96.0.4664.110,Windows,10.0,ac0f2dffeffaa78d35a552e03d03f0a8
16,3,"""",test_procedure,fixation,html-keyboard-response,55,191849,0.0-11.0-0.0-0.5,3SD15I2WEBVYX2RZ7BNPTJHHA9P63F,A2196WCNDZULFS,3IXQG4FA22ZT50U3ADA9JW2JRNC9B9,AGXI4,AGXI4,3IXQG4FA22ZT50U3ADA9JW2JRNC9B9,3IXQG4FA22ZT50U3ADA9JW2JRNC9B9,338054,338054,3,0.06,"""",null,null,"<div class = fixationbox><div class = fixation>+</div></div>","""","""","""","""","""","""","""","""","2021-12-31 03:31:58",67.158.16.226,"Mozilla/5.0 (Windows NT 10.0; Win64; x64) AppleWebKit/537.36 (KHTML, like Gecko) Chrome/96.0.4664.110 Safari/537.36",WebKit,Chrome,96.0.4664.110,Windows,10.0,ac0f2dffeffaa78d35a552e03d03f0a8
16,3,"""",test_procedure,stim_test,canvas-button-response,56,193407,0.0-11.0-0.0-1.5,3SD15I2WEBVYX2RZ7BNPTJHHA9P63F,A2196WCNDZULFS,3IXQG4FA22ZT50U3ADA9JW2JRNC9B9,AGXI4,AGXI4,3IXQG4FA22ZT50U3ADA9JW2JRNC9B9,3IXQG4FA22ZT50U3ADA9JW2JRNC9B9,338054,338054,3,0.06,"""",1492.5,0,stim4,0,Counter-clockwise,true,"""",0.3,120,"""","""","2021-12-31 03:31:58",67.158.16.226,"Mozilla/5.0 (Windows NT 10.0; Win64; x64) AppleWebKit/537.36 (KHTML, like Gecko) Chrome/96.0.4664.110 Safari/537.36",WebKit,Chrome,96.0.4664.110,Windows,10.0,ac0f2dffeffaa78d35a552e03d03f0a8
16,3,"""",test_procedure,confidence_rating,html-slider-response,57,195604,0.0-11.0-0.0-2.5,3SD15I2WEBVYX2RZ7BNPTJHHA9P63F,A2196WCNDZULFS,3IXQG4FA22ZT50U3ADA9JW2JRNC9B9,AGXI4,AGXI4,3IXQG4FA22ZT50U3ADA9JW2JRNC9B9,3IXQG4FA22ZT50U3ADA9JW2JRNC9B9,338054,338054,3,0.06,"""",2194.7999999523163,38,"<div id=""message-div""><p>How confident are you that your clockwise/counter-clockwise response just now was accurate? Please rate your confidence on the slider bar below.</p></div>","""","""","""",50,"""","""","""",38,"2021-12-31 03:31:58",67.158.16.226,"Mozilla/5.0 (Windows NT 10.0; Win64; x64) AppleWebKit/537.36 (KHTML, like Gecko) Chrome/96.0.4664.110 Safari/537.36",WebKit,Chrome,96.0.4664.110,Windows,10.0,ac0f2dffeffaa78d35a552e03d03f0a8
16,3,"""",test_procedure,fixation,html-keyboard-response,58,196105,0.0-11.0-0.0-0.6,3SD15I2WEBVYX2RZ7BNPTJHHA9P63F,A2196WCNDZULFS,3IXQG4FA22ZT50U3ADA9JW2JRNC9B9,AGXI4,AGXI4,3IXQG4FA22ZT50U3ADA9JW2JRNC9B9,3IXQG4FA22ZT50U3ADA9JW2JRNC9B9,338054,338054,3,0.06,"""",null,null,"<div class = fixationbox><div class = fixation>+</div></div>","""","""","""","""","""","""","""","""","2021-12-31 03:31:58",67.158.16.226,"Mozilla/5.0 (Windows NT 10.0; Win64; x64) AppleWebKit/537.36 (KHTML, like Gecko) Chrome/96.0.4664.110 Safari/537.36",WebKit,Chrome,96.0.4664.110,Windows,10.0,ac0f2dffeffaa78d35a552e03d03f0a8
16,3,"""",test_procedure,stim_test,canvas-button-response,59,197124,0.0-11.0-0.0-1.6,3SD15I2WEBVYX2RZ7BNPTJHHA9P63F,A2196WCNDZULFS,3IXQG4FA22ZT50U3ADA9JW2JRNC9B9,AGXI4,AGXI4,3IXQG4FA22ZT50U3ADA9JW2JRNC9B9,3IXQG4FA22ZT50U3ADA9JW2JRNC9B9,338054,338054,3,0.06,"""",935.7999999523163,1,catchStim1,1,Clockwise,true,"""",0.01,60,0.6,"""","2021-12-31 03:31:58",67.158.16.226,"Mozilla/5.0 (Windows NT 10.0; Win64; x64) AppleWebKit/537.36 (KHTML, like Gecko) Chrome/96.0.4664.110 Safari/537.36",WebKit,Chrome,96.0.4664.110,Windows,10.0,ac0f2dffeffaa78d35a552e03d03f0a8
16,3,"""",test_procedure,confidence_rating,html-slider-response,60,199276,0.0-11.0-0.0-2.6,3SD15I2WEBVYX2RZ7BNPTJHHA9P63F,A2196WCNDZULFS,3IXQG4FA22ZT50U3ADA9JW2JRNC9B9,AGXI4,AGXI4,3IXQG4FA22ZT50U3ADA9JW2JRNC9B9,3IXQG4FA22ZT50U3ADA9JW2JRNC9B9,338054,338054,3,0.06,"""",2151,98,"<div id=""message-div""><p>How confident are you that your clockwise/counter-clockwise response just now was accurate? Please rate your confidence on the slider bar below.</p></div>","""","""","""",50,"""","""","""",98,"2021-12-31 03:31:58",67.158.16.226,"Mozilla/5.0 (Windows NT 10.0; Win64; x64) AppleWebKit/537.36 (KHTML, like Gecko) Chrome/96.0.4664.110 Safari/537.36",WebKit,Chrome,96.0.4664.110,Windows,10.0,ac0f2dffeffaa78d35a552e03d03f0a8
16,3,"""",test_procedure,fixation,html-keyboard-response,61,199779,0.0-11.0-0.0-0.7,3SD15I2WEBVYX2RZ7BNPTJHHA9P63F,A2196WCNDZULFS,3IXQG4FA22ZT50U3ADA9JW2JRNC9B9,AGXI4,AGXI4,3IXQG4FA22ZT50U3ADA9JW2JRNC9B9,3IXQG4FA22ZT50U3ADA9JW2JRNC9B9,338054,338054,3,0.06,"""",null,null,"<div class = fixationbox><div class = fixation>+</div></div>","""","""","""","""","""","""","""","""","2021-12-31 03:31:58",67.158.16.226,"Mozilla/5.0 (Windows NT 10.0; Win64; x64) AppleWebKit/537.36 (KHTML, like Gecko) Chrome/96.0.4664.110 Safari/537.36",WebKit,Chrome,96.0.4664.110,Windows,10.0,ac0f2dffeffaa78d35a552e03d03f0a8
16,3,"""",test_procedure,stim_test,canvas-button-response,62,201028,0.0-11.0-0.0-1.7,3SD15I2WEBVYX2RZ7BNPTJHHA9P63F,A2196WCNDZULFS,3IXQG4FA22ZT50U3ADA9JW2JRNC9B9,AGXI4,AGXI4,3IXQG4FA22ZT50U3ADA9JW2JRNC9B9,3IXQG4FA22ZT50U3ADA9JW2JRNC9B9,338054,338054,3,0.06,"""",1190.7000000476837,0,catchStim7,1,Clockwise,false,"""",0.3,60,0.001,"""","2021-12-31 03:31:58",67.158.16.226,"Mozilla/5.0 (Windows NT 10.0; Win64; x64) AppleWebKit/537.36 (KHTML, like Gecko) Chrome/96.0.4664.110 Safari/537.36",WebKit,Chrome,96.0.4664.110,Windows,10.0,ac0f2dffeffaa78d35a552e03d03f0a8
16,3,"""",test_procedure,confidence_rating,html-slider-response,63,203964,0.0-11.0-0.0-2.7,3SD15I2WEBVYX2RZ7BNPTJHHA9P63F,A2196WCNDZULFS,3IXQG4FA22ZT50U3ADA9JW2JRNC9B9,AGXI4,AGXI4,3IXQG4FA22ZT50U3ADA9JW2JRNC9B9,3IXQG4FA22ZT50U3ADA9JW2JRNC9B9,338054,338054,3,0.06,"""",2935.399999856949,50,"<div id=""message-div""><p>How confident are you that your clockwise/counter-clockwise response just now was accurate? Please rate your confidence on the slider bar below.</p></div>","""","""","""",50,"""","""","""",50,"2021-12-31 03:31:58",67.158.16.226,"Mozilla/5.0 (Windows NT 10.0; Win64; x64) AppleWebKit/537.36 (KHTML, like Gecko) Chrome/96.0.4664.110 Safari/537.36",WebKit,Chrome,96.0.4664.110,Windows,10.0,ac0f2dffeffaa78d35a552e03d03f0a8
16,3,"""",test_procedure,fixation,html-keyboard-response,64,204466,0.0-11.0-0.0-0.8,3SD15I2WEBVYX2RZ7BNPTJHHA9P63F,A2196WCNDZULFS,3IXQG4FA22ZT50U3ADA9JW2JRNC9B9,AGXI4,AGXI4,3IXQG4FA22ZT50U3ADA9JW2JRNC9B9,3IXQG4FA22ZT50U3ADA9JW2JRNC9B9,338054,338054,3,0.06,"""",null,null,"<div class = fixationbox><div class = fixation>+</div></div>","""","""","""","""","""","""","""","""","2021-12-31 03:31:58",67.158.16.226,"Mozilla/5.0 (Windows NT 10.0; Win64; x64) AppleWebKit/537.36 (KHTML, like Gecko) Chrome/96.0.4664.110 Safari/537.36",WebKit,Chrome,96.0.4664.110,Windows,10.0,ac0f2dffeffaa78d35a552e03d03f0a8
16,3,"""",test_procedure,stim_test,canvas-button-response,65,205700,0.0-11.0-0.0-1.8,3SD15I2WEBVYX2RZ7BNPTJHHA9P63F,A2196WCNDZULFS,3IXQG4FA22ZT50U3ADA9JW2JRNC9B9,AGXI4,AGXI4,3IXQG4FA22ZT50U3ADA9JW2JRNC9B9,3IXQG4FA22ZT50U3ADA9JW2JRNC9B9,338054,338054,3,0.06,"""",1159.6000001430511,0,stim2,0,Counter-clockwise,true,"""",0.01,120,"""","""","2021-12-31 03:31:58",67.158.16.226,"Mozilla/5.0 (Windows NT 10.0; Win64; x64) AppleWebKit/537.36 (KHTML, like Gecko) Chrome/96.0.4664.110 Safari/537.36",WebKit,Chrome,96.0.4664.110,Windows,10.0,ac0f2dffeffaa78d35a552e03d03f0a8
16,3,"""",test_procedure,confidence_rating,html-slider-response,66,208388,0.0-11.0-0.0-2.8,3SD15I2WEBVYX2RZ7BNPTJHHA9P63F,A2196WCNDZULFS,3IXQG4FA22ZT50U3ADA9JW2JRNC9B9,AGXI4,AGXI4,3IXQG4FA22ZT50U3ADA9JW2JRNC9B9,3IXQG4FA22ZT50U3ADA9JW2JRNC9B9,338054,338054,3,0.06,"""",2685.2999999523163,35,"<div id=""message-div""><p>How confident are you that your clockwise/counter-clockwise response just now was accurate? Please rate your confidence on the slider bar below.</p></div>","""","""","""",50,"""","""","""",35,"2021-12-31 03:31:58",67.158.16.226,"Mozilla/5.0 (Windows NT 10.0; Win64; x64) AppleWebKit/537.36 (KHTML, like Gecko) Chrome/96.0.4664.110 Safari/537.36",WebKit,Chrome,96.0.4664.110,Windows,10.0,ac0f2dffeffaa78d35a552e03d03f0a8
16,3,"""",test_procedure,fixation,html-keyboard-response,67,208889,0.0-11.0-0.0-0.9,3SD15I2WEBVYX2RZ7BNPTJHHA9P63F,A2196WCNDZULFS,3IXQG4FA22ZT50U3ADA9JW2JRNC9B9,AGXI4,AGXI4,3IXQG4FA22ZT50U3ADA9JW2JRNC9B9,3IXQG4FA22ZT50U3ADA9JW2JRNC9B9,338054,338054,3,0.06,"""",null,null,"<div class = fixationbox><div class = fixation>+</div></div>","""","""","""","""","""","""","""","""","2021-12-31 03:31:58",67.158.16.226,"Mozilla/5.0 (Windows NT 10.0; Win64; x64) AppleWebKit/537.36 (KHTML, like Gecko) Chrome/96.0.4664.110 Safari/537.36",WebKit,Chrome,96.0.4664.110,Windows,10.0,ac0f2dffeffaa78d35a552e03d03f0a8
16,3,"""",test_procedure,stim_test,canvas-button-response,68,210044,0.0-11.0-0.0-1.9,3SD15I2WEBVYX2RZ7BNPTJHHA9P63F,A2196WCNDZULFS,3IXQG4FA22ZT50U3ADA9JW2JRNC9B9,AGXI4,AGXI4,3IXQG4FA22ZT50U3ADA9JW2JRNC9B9,3IXQG4FA22ZT50U3ADA9JW2JRNC9B9,338054,338054,3,0.06,"""",1091.2999999523163,0,catchStim6,0,Counter-clockwise,true,"""",0.3,120,0.6,"""","2021-12-31 03:31:58",67.158.16.226,"Mozilla/5.0 (Windows NT 10.0; Win64; x64) AppleWebKit/537.36 (KHTML, like Gecko) Chrome/96.0.4664.110 Safari/537.36",WebKit,Chrome,96.0.4664.110,Windows,10.0,ac0f2dffeffaa78d35a552e03d03f0a8
16,3,"""",test_procedure,confidence_rating,html-slider-response,69,212036,0.0-11.0-0.0-2.9,3SD15I2WEBVYX2RZ7BNPTJHHA9P63F,A2196WCNDZULFS,3IXQG4FA22ZT50U3ADA9JW2JRNC9B9,AGXI4,AGXI4,3IXQG4FA22ZT50U3ADA9JW2JRNC9B9,3IXQG4FA22ZT50U3ADA9JW2JRNC9B9,338054,338054,3,0.06,"""",1991.0999999046326,98,"<div id=""message-div""><p>How confident are you that your clockwise/counter-clockwise response just now was accurate? Please rate your confidence on the slider bar below.</p></div>","""","""","""",50,"""","""","""",98,"2021-12-31 03:31:58",67.158.16.226,"Mozilla/5.0 (Windows NT 10.0; Win64; x64) AppleWebKit/537.36 (KHTML, like Gecko) Chrome/96.0.4664.110 Safari/537.36",WebKit,Chrome,96.0.4664.110,Windows,10.0,ac0f2dffeffaa78d35a552e03d03f0a8
16,3,"""",test_procedure,fixation,html-keyboard-response,70,212538,0.0-11.0-0.0-0.10,3SD15I2WEBVYX2RZ7BNPTJHHA9P63F,A2196WCNDZULFS,3IXQG4FA22ZT50U3ADA9JW2JRNC9B9,AGXI4,AGXI4,3IXQG4FA22ZT50U3ADA9JW2JRNC9B9,3IXQG4FA22ZT50U3ADA9JW2JRNC9B9,338054,338054,3,0.06,"""",null,null,"<div class = fixationbox><div class = fixation>+</div></div>","""","""","""","""","""","""","""","""","2021-12-31 03:31:58",67.158.16.226,"Mozilla/5.0 (Windows NT 10.0; Win64; x64) AppleWebKit/537.36 (KHTML, like Gecko) Chrome/96.0.4664.110 Safari/537.36",WebKit,Chrome,96.0.4664.110,Windows,10.0,ac0f2dffeffaa78d35a552e03d03f0a8
16,3,"""",test_procedure,stim_test,canvas-button-response,71,213860,0.0-11.0-0.0-1.10,3SD15I2WEBVYX2RZ7BNPTJHHA9P63F,A2196WCNDZULFS,3IXQG4FA22ZT50U3ADA9JW2JRNC9B9,AGXI4,AGXI4,3IXQG4FA22ZT50U3ADA9JW2JRNC9B9,3IXQG4FA22ZT50U3ADA9JW2JRNC9B9,338054,338054,3,0.06,"""",1254.2999999523163,1,stim1,1,Clockwise,true,"""",0.01,60,"""","""","2021-12-31 03:31:58",67.158.16.226,"Mozilla/5.0 (Windows NT 10.0; Win64; x64) AppleWebKit/537.36 (KHTML, like Gecko) Chrome/96.0.4664.110 Safari/537.36",WebKit,Chrome,96.0.4664.110,Windows,10.0,ac0f2dffeffaa78d35a552e03d03f0a8
16,3,"""",test_procedure,confidence_rating,html-slider-response,72,216500,0.0-11.0-0.0-2.10,3SD15I2WEBVYX2RZ7BNPTJHHA9P63F,A2196WCNDZULFS,3IXQG4FA22ZT50U3ADA9JW2JRNC9B9,AGXI4,AGXI4,3IXQG4FA22ZT50U3ADA9JW2JRNC9B9,3IXQG4FA22ZT50U3ADA9JW2JRNC9B9,338054,338054,3,0.06,"""",2639.199999809265,71,"<div id=""message-div""><p>How confident are you that your clockwise/counter-clockwise response just now was accurate? Please rate your confidence on the slider bar below.</p></div>","""","""","""",50,"""","""","""",71,"2021-12-31 03:31:58",67.158.16.226,"Mozilla/5.0 (Windows NT 10.0; Win64; x64) AppleWebKit/537.36 (KHTML, like Gecko) Chrome/96.0.4664.110 Safari/537.36",WebKit,Chrome,96.0.4664.110,Windows,10.0,ac0f2dffeffaa78d35a552e03d03f0a8
16,3,"""",test_procedure,fixation,html-keyboard-response,73,217002,0.0-11.0-0.0-0.11,3SD15I2WEBVYX2RZ7BNPTJHHA9P63F,A2196WCNDZULFS,3IXQG4FA22ZT50U3ADA9JW2JRNC9B9,AGXI4,AGXI4,3IXQG4FA22ZT50U3ADA9JW2JRNC9B9,3IXQG4FA22ZT50U3ADA9JW2JRNC9B9,338054,338054,3,0.06,"""",null,null,"<div class = fixationbox><div class = fixation>+</div></div>","""","""","""","""","""","""","""","""","2021-12-31 03:31:58",67.158.16.226,"Mozilla/5.0 (Windows NT 10.0; Win64; x64) AppleWebKit/537.36 (KHTML, like Gecko) Chrome/96.0.4664.110 Safari/537.36",WebKit,Chrome,96.0.4664.110,Windows,10.0,ac0f2dffeffaa78d35a552e03d03f0a8
16,3,"""",test_procedure,stim_test,canvas-button-response,74,218844,0.0-11.0-0.0-1.11,3SD15I2WEBVYX2RZ7BNPTJHHA9P63F,A2196WCNDZULFS,3IXQG4FA22ZT50U3ADA9JW2JRNC9B9,AGXI4,AGXI4,3IXQG4FA22ZT50U3ADA9JW2JRNC9B9,3IXQG4FA22ZT50U3ADA9JW2JRNC9B9,338054,338054,3,0.06,"""",1793.5,1,stim3,1,Clockwise,true,"""",0.3,60,"""","""","2021-12-31 03:31:58",67.158.16.226,"Mozilla/5.0 (Windows NT 10.0; Win64; x64) AppleWebKit/537.36 (KHTML, like Gecko) Chrome/96.0.4664.110 Safari/537.36",WebKit,Chrome,96.0.4664.110,Windows,10.0,ac0f2dffeffaa78d35a552e03d03f0a8
16,3,"""",test_procedure,confidence_rating,html-slider-response,75,220868,0.0-11.0-0.0-2.11,3SD15I2WEBVYX2RZ7BNPTJHHA9P63F,A2196WCNDZULFS,3IXQG4FA22ZT50U3ADA9JW2JRNC9B9,AGXI4,AGXI4,3IXQG4FA22ZT50U3ADA9JW2JRNC9B9,3IXQG4FA22ZT50U3ADA9JW2JRNC9B9,338054,338054,3,0.06,"""",2021.3999998569489,43,"<div id=""message-div""><p>How confident are you that your clockwise/counter-clockwise response just now was accurate? Please rate your confidence on the slider bar below.</p></div>","""","""","""",50,"""","""","""",43,"2021-12-31 03:31:58",67.158.16.226,"Mozilla/5.0 (Windows NT 10.0; Win64; x64) AppleWebKit/537.36 (KHTML, like Gecko) Chrome/96.0.4664.110 Safari/537.36",WebKit,Chrome,96.0.4664.110,Windows,10.0,ac0f2dffeffaa78d35a552e03d03f0a8
16,3,"""",test_procedure,fixation,html-keyboard-response,76,221369,0.0-11.0-0.0-0.12,3SD15I2WEBVYX2RZ7BNPTJHHA9P63F,A2196WCNDZULFS,3IXQG4FA22ZT50U3ADA9JW2JRNC9B9,AGXI4,AGXI4,3IXQG4FA22ZT50U3ADA9JW2JRNC9B9,3IXQG4FA22ZT50U3ADA9JW2JRNC9B9,338054,338054,3,0.06,"""",null,null,"<div class = fixationbox><div class = fixation>+</div></div>","""","""","""","""","""","""","""","""","2021-12-31 03:31:58",67.158.16.226,"Mozilla/5.0 (Windows NT 10.0; Win64; x64) AppleWebKit/537.36 (KHTML, like Gecko) Chrome/96.0.4664.110 Safari/537.36",WebKit,Chrome,96.0.4664.110,Windows,10.0,ac0f2dffeffaa78d35a552e03d03f0a8
16,3,"""",test_procedure,stim_test,canvas-button-response,77,222780,0.0-11.0-0.0-1.12,3SD15I2WEBVYX2RZ7BNPTJHHA9P63F,A2196WCNDZULFS,3IXQG4FA22ZT50U3ADA9JW2JRNC9B9,AGXI4,AGXI4,3IXQG4FA22ZT50U3ADA9JW2JRNC9B9,3IXQG4FA22ZT50U3ADA9JW2JRNC9B9,338054,338054,3,0.06,"""",1351.7999999523163,1,catchStim4,0,Counter-clockwise,false,"""",0.01,120,0.001,"""","2021-12-31 03:31:58",67.158.16.226,"Mozilla/5.0 (Windows NT 10.0; Win64; x64) AppleWebKit/537.36 (KHTML, like Gecko) Chrome/96.0.4664.110 Safari/537.36",WebKit,Chrome,96.0.4664.110,Windows,10.0,ac0f2dffeffaa78d35a552e03d03f0a8
16,3,"""",test_procedure,confidence_rating,html-slider-response,78,225165,0.0-11.0-0.0-2.12,3SD15I2WEBVYX2RZ7BNPTJHHA9P63F,A2196WCNDZULFS,3IXQG4FA22ZT50U3ADA9JW2JRNC9B9,AGXI4,AGXI4,3IXQG4FA22ZT50U3ADA9JW2JRNC9B9,3IXQG4FA22ZT50U3ADA9JW2JRNC9B9,338054,338054,3,0.06,"""",2383.199999809265,3,"<div id=""message-div""><p>How confident are you that your clockwise/counter-clockwise response just now was accurate? Please rate your confidence on the slider bar below.</p></div>","""","""","""",50,"""","""","""",3,"2021-12-31 03:31:58",67.158.16.226,"Mozilla/5.0 (Windows NT 10.0; Win64; x64) AppleWebKit/537.36 (KHTML, like Gecko) Chrome/96.0.4664.110 Safari/537.36",WebKit,Chrome,96.0.4664.110,Windows,10.0,ac0f2dffeffaa78d35a552e03d03f0a8
16,3,"""",test_procedure,fixation,html-keyboard-response,79,225668,0.0-11.0-0.0-0.13,3SD15I2WEBVYX2RZ7BNPTJHHA9P63F,A2196WCNDZULFS,3IXQG4FA22ZT50U3ADA9JW2JRNC9B9,AGXI4,AGXI4,3IXQG4FA22ZT50U3ADA9JW2JRNC9B9,3IXQG4FA22ZT50U3ADA9JW2JRNC9B9,338054,338054,3,0.06,"""",null,null,"<div class = fixationbox><div class = fixation>+</div></div>","""","""","""","""","""","""","""","""","2021-12-31 03:31:58",67.158.16.226,"Mozilla/5.0 (Windows NT 10.0; Win64; x64) AppleWebKit/537.36 (KHTML, like Gecko) Chrome/96.0.4664.110 Safari/537.36",WebKit,Chrome,96.0.4664.110,Windows,10.0,ac0f2dffeffaa78d35a552e03d03f0a8
16,3,"""",test_procedure,stim_test,canvas-button-response,80,226853,0.0-11.0-0.0-1.13,3SD15I2WEBVYX2RZ7BNPTJHHA9P63F,A2196WCNDZULFS,3IXQG4FA22ZT50U3ADA9JW2JRNC9B9,AGXI4,AGXI4,3IXQG4FA22ZT50U3ADA9JW2JRNC9B9,3IXQG4FA22ZT50U3ADA9JW2JRNC9B9,338054,338054,3,0.06,"""",1112.5,0,stim4,0,Counter-clockwise,true,"""",0.3,120,"""","""","2021-12-31 03:31:58",67.158.16.226,"Mozilla/5.0 (Windows NT 10.0; Win64; x64) AppleWebKit/537.36 (KHTML, like Gecko) Chrome/96.0.4664.110 Safari/537.36",WebKit,Chrome,96.0.4664.110,Windows,10.0,ac0f2dffeffaa78d35a552e03d03f0a8
16,3,"""",test_procedure,confidence_rating,html-slider-response,81,229381,0.0-11.0-0.0-2.13,3SD15I2WEBVYX2RZ7BNPTJHHA9P63F,A2196WCNDZULFS,3IXQG4FA22ZT50U3ADA9JW2JRNC9B9,AGXI4,AGXI4,3IXQG4FA22ZT50U3ADA9JW2JRNC9B9,3IXQG4FA22ZT50U3ADA9JW2JRNC9B9,338054,338054,3,0.06,"""",2527.0999999046326,63,"<div id=""message-div""><p>How confident are you that your clockwise/counter-clockwise response just now was accurate? Please rate your confidence on the slider bar below.</p></div>","""","""","""",50,"""","""","""",63,"2021-12-31 03:31:58",67.158.16.226,"Mozilla/5.0 (Windows NT 10.0; Win64; x64) AppleWebKit/537.36 (KHTML, like Gecko) Chrome/96.0.4664.110 Safari/537.36",WebKit,Chrome,96.0.4664.110,Windows,10.0,ac0f2dffeffaa78d35a552e03d03f0a8
16,3,"""",test_procedure,fixation,html-keyboard-response,82,229882,0.0-11.0-0.0-0.14,3SD15I2WEBVYX2RZ7BNPTJHHA9P63F,A2196WCNDZULFS,3IXQG4FA22ZT50U3ADA9JW2JRNC9B9,AGXI4,AGXI4,3IXQG4FA22ZT50U3ADA9JW2JRNC9B9,3IXQG4FA22ZT50U3ADA9JW2JRNC9B9,338054,338054,3,0.06,"""",null,null,"<div class = fixationbox><div class = fixation>+</div></div>","""","""","""","""","""","""","""","""","2021-12-31 03:31:58",67.158.16.226,"Mozilla/5.0 (Windows NT 10.0; Win64; x64) AppleWebKit/537.36 (KHTML, like Gecko) Chrome/96.0.4664.110 Safari/537.36",WebKit,Chrome,96.0.4664.110,Windows,10.0,ac0f2dffeffaa78d35a552e03d03f0a8
16,3,"""",test_procedure,stim_test,canvas-button-response,83,231093,0.0-11.0-0.0-1.14,3SD15I2WEBVYX2RZ7BNPTJHHA9P63F,A2196WCNDZULFS,3IXQG4FA22ZT50U3ADA9JW2JRNC9B9,AGXI4,AGXI4,3IXQG4FA22ZT50U3ADA9JW2JRNC9B9,3IXQG4FA22ZT50U3ADA9JW2JRNC9B9,338054,338054,3,0.06,"""",1137.7999999523163,1,stim3,1,Clockwise,true,"""",0.3,60,"""","""","2021-12-31 03:31:58",67.158.16.226,"Mozilla/5.0 (Windows NT 10.0; Win64; x64) AppleWebKit/537.36 (KHTML, like Gecko) Chrome/96.0.4664.110 Safari/537.36",WebKit,Chrome,96.0.4664.110,Windows,10.0,ac0f2dffeffaa78d35a552e03d03f0a8
16,3,"""",test_procedure,confidence_rating,html-slider-response,84,233053,0.0-11.0-0.0-2.14,3SD15I2WEBVYX2RZ7BNPTJHHA9P63F,A2196WCNDZULFS,3IXQG4FA22ZT50U3ADA9JW2JRNC9B9,AGXI4,AGXI4,3IXQG4FA22ZT50U3ADA9JW2JRNC9B9,3IXQG4FA22ZT50U3ADA9JW2JRNC9B9,338054,338054,3,0.06,"""",1956.9000000953674,80,"<div id=""message-div""><p>How confident are you that your clockwise/counter-clockwise response just now was accurate? Please rate your confidence on the slider bar below.</p></div>","""","""","""",50,"""","""","""",80,"2021-12-31 03:31:58",67.158.16.226,"Mozilla/5.0 (Windows NT 10.0; Win64; x64) AppleWebKit/537.36 (KHTML, like Gecko) Chrome/96.0.4664.110 Safari/537.36",WebKit,Chrome,96.0.4664.110,Windows,10.0,ac0f2dffeffaa78d35a552e03d03f0a8
16,3,"""",test_procedure,fixation,html-keyboard-response,85,233554,0.0-11.0-0.0-0.15,3SD15I2WEBVYX2RZ7BNPTJHHA9P63F,A2196WCNDZULFS,3IXQG4FA22ZT50U3ADA9JW2JRNC9B9,AGXI4,AGXI4,3IXQG4FA22ZT50U3ADA9JW2JRNC9B9,3IXQG4FA22ZT50U3ADA9JW2JRNC9B9,338054,338054,3,0.06,"""",null,null,"<div class = fixationbox><div class = fixation>+</div></div>","""","""","""","""","""","""","""","""","2021-12-31 03:31:58",67.158.16.226,"Mozilla/5.0 (Windows NT 10.0; Win64; x64) AppleWebKit/537.36 (KHTML, like Gecko) Chrome/96.0.4664.110 Safari/537.36",WebKit,Chrome,96.0.4664.110,Windows,10.0,ac0f2dffeffaa78d35a552e03d03f0a8
16,3,"""",test_procedure,stim_test,canvas-button-response,86,235053,0.0-11.0-0.0-1.15,3SD15I2WEBVYX2RZ7BNPTJHHA9P63F,A2196WCNDZULFS,3IXQG4FA22ZT50U3ADA9JW2JRNC9B9,AGXI4,AGXI4,3IXQG4FA22ZT50U3ADA9JW2JRNC9B9,3IXQG4FA22ZT50U3ADA9JW2JRNC9B9,338054,338054,3,0.06,"""",1429,0,stim4,0,Counter-clockwise,true,"""",0.3,120,"""","""","2021-12-31 03:31:58",67.158.16.226,"Mozilla/5.0 (Windows NT 10.0; Win64; x64) AppleWebKit/537.36 (KHTML, like Gecko) Chrome/96.0.4664.110 Safari/537.36",WebKit,Chrome,96.0.4664.110,Windows,10.0,ac0f2dffeffaa78d35a552e03d03f0a8
16,3,"""",test_procedure,confidence_rating,html-slider-response,87,237109,0.0-11.0-0.0-2.15,3SD15I2WEBVYX2RZ7BNPTJHHA9P63F,A2196WCNDZULFS,3IXQG4FA22ZT50U3ADA9JW2JRNC9B9,AGXI4,AGXI4,3IXQG4FA22ZT50U3ADA9JW2JRNC9B9,3IXQG4FA22ZT50U3ADA9JW2JRNC9B9,338054,338054,3,0.06,"""",2055.0999999046326,9,"<div id=""message-div""><p>How confident are you that your clockwise/counter-clockwise response just now was accurate? Please rate your confidence on the slider bar below.</p></div>","""","""","""",50,"""","""","""",9,"2021-12-31 03:31:58",67.158.16.226,"Mozilla/5.0 (Windows NT 10.0; Win64; x64) AppleWebKit/537.36 (KHTML, like Gecko) Chrome/96.0.4664.110 Safari/537.36",WebKit,Chrome,96.0.4664.110,Windows,10.0,ac0f2dffeffaa78d35a552e03d03f0a8
16,3,"""",test_procedure,fixation,html-keyboard-response,88,237611,0.0-11.0-0.0-0.16,3SD15I2WEBVYX2RZ7BNPTJHHA9P63F,A2196WCNDZULFS,3IXQG4FA22ZT50U3ADA9JW2JRNC9B9,AGXI4,AGXI4,3IXQG4FA22ZT50U3ADA9JW2JRNC9B9,3IXQG4FA22ZT50U3ADA9JW2JRNC9B9,338054,338054,3,0.06,"""",null,null,"<div class = fixationbox><div class = fixation>+</div></div>","""","""","""","""","""","""","""","""","2021-12-31 03:31:58",67.158.16.226,"Mozilla/5.0 (Windows NT 10.0; Win64; x64) AppleWebKit/537.36 (KHTML, like Gecko) Chrome/96.0.4664.110 Safari/537.36",WebKit,Chrome,96.0.4664.110,Windows,10.0,ac0f2dffeffaa78d35a552e03d03f0a8
16,3,"""",test_procedure,stim_test,canvas-button-response,89,238813,0.0-11.0-0.0-1.16,3SD15I2WEBVYX2RZ7BNPTJHHA9P63F,A2196WCNDZULFS,3IXQG4FA22ZT50U3ADA9JW2JRNC9B9,AGXI4,AGXI4,3IXQG4FA22ZT50U3ADA9JW2JRNC9B9,3IXQG4FA22ZT50U3ADA9JW2JRNC9B9,338054,338054,3,0.06,"""",1141.5,0,stim2,0,Counter-clockwise,true,"""",0.01,120,"""","""","2021-12-31 03:31:58",67.158.16.226,"Mozilla/5.0 (Windows NT 10.0; Win64; x64) AppleWebKit/537.36 (KHTML, like Gecko) Chrome/96.0.4664.110 Safari/537.36",WebKit,Chrome,96.0.4664.110,Windows,10.0,ac0f2dffeffaa78d35a552e03d03f0a8
16,3,"""",test_procedure,confidence_rating,html-slider-response,90,240765,0.0-11.0-0.0-2.16,3SD15I2WEBVYX2RZ7BNPTJHHA9P63F,A2196WCNDZULFS,3IXQG4FA22ZT50U3ADA9JW2JRNC9B9,AGXI4,AGXI4,3IXQG4FA22ZT50U3ADA9JW2JRNC9B9,3IXQG4FA22ZT50U3ADA9JW2JRNC9B9,338054,338054,3,0.06,"""",1951.5,33,"<div id=""message-div""><p>How confident are you that your clockwise/counter-clockwise response just now was accurate? Please rate your confidence on the slider bar below.</p></div>","""","""","""",50,"""","""","""",33,"2021-12-31 03:31:58",67.158.16.226,"Mozilla/5.0 (Windows NT 10.0; Win64; x64) AppleWebKit/537.36 (KHTML, like Gecko) Chrome/96.0.4664.110 Safari/537.36",WebKit,Chrome,96.0.4664.110,Windows,10.0,ac0f2dffeffaa78d35a552e03d03f0a8
16,3,"""",test_procedure,fixation,html-keyboard-response,91,241266,0.0-11.0-0.0-0.17,3SD15I2WEBVYX2RZ7BNPTJHHA9P63F,A2196WCNDZULFS,3IXQG4FA22ZT50U3ADA9JW2JRNC9B9,AGXI4,AGXI4,3IXQG4FA22ZT50U3ADA9JW2JRNC9B9,3IXQG4FA22ZT50U3ADA9JW2JRNC9B9,338054,338054,3,0.06,"""",null,null,"<div class = fixationbox><div class = fixation>+</div></div>","""","""","""","""","""","""","""","""","2021-12-31 03:31:58",67.158.16.226,"Mozilla/5.0 (Windows NT 10.0; Win64; x64) AppleWebKit/537.36 (KHTML, like Gecko) Chrome/96.0.4664.110 Safari/537.36",WebKit,Chrome,96.0.4664.110,Windows,10.0,ac0f2dffeffaa78d35a552e03d03f0a8
16,3,"""",test_procedure,stim_test,canvas-button-response,92,242460,0.0-11.0-0.0-1.17,3SD15I2WEBVYX2RZ7BNPTJHHA9P63F,A2196WCNDZULFS,3IXQG4FA22ZT50U3ADA9JW2JRNC9B9,AGXI4,AGXI4,3IXQG4FA22ZT50U3ADA9JW2JRNC9B9,3IXQG4FA22ZT50U3ADA9JW2JRNC9B9,338054,338054,3,0.06,"""",1127,1,stim1,1,Clockwise,true,"""",0.01,60,"""","""","2021-12-31 03:31:58",67.158.16.226,"Mozilla/5.0 (Windows NT 10.0; Win64; x64) AppleWebKit/537.36 (KHTML, like Gecko) Chrome/96.0.4664.110 Safari/537.36",WebKit,Chrome,96.0.4664.110,Windows,10.0,ac0f2dffeffaa78d35a552e03d03f0a8
16,3,"""",test_procedure,confidence_rating,html-slider-response,93,244636,0.0-11.0-0.0-2.17,3SD15I2WEBVYX2RZ7BNPTJHHA9P63F,A2196WCNDZULFS,3IXQG4FA22ZT50U3ADA9JW2JRNC9B9,AGXI4,AGXI4,3IXQG4FA22ZT50U3ADA9JW2JRNC9B9,3IXQG4FA22ZT50U3ADA9JW2JRNC9B9,338054,338054,3,0.06,"""",2175.2000000476837,5,"<div id=""message-div""><p>How confident are you that your clockwise/counter-clockwise response just now was accurate? Please rate your confidence on the slider bar below.</p></div>","""","""","""",50,"""","""","""",5,"2021-12-31 03:31:58",67.158.16.226,"Mozilla/5.0 (Windows NT 10.0; Win64; x64) AppleWebKit/537.36 (KHTML, like Gecko) Chrome/96.0.4664.110 Safari/537.36",WebKit,Chrome,96.0.4664.110,Windows,10.0,ac0f2dffeffaa78d35a552e03d03f0a8
16,3,"""",test_procedure,fixation,html-keyboard-response,94,245141,0.0-11.0-0.0-0.18,3SD15I2WEBVYX2RZ7BNPTJHHA9P63F,A2196WCNDZULFS,3IXQG4FA22ZT50U3ADA9JW2JRNC9B9,AGXI4,AGXI4,3IXQG4FA22ZT50U3ADA9JW2JRNC9B9,3IXQG4FA22ZT50U3ADA9JW2JRNC9B9,338054,338054,3,0.06,"""",null,null,"<div class = fixationbox><div class = fixation>+</div></div>","""","""","""","""","""","""","""","""","2021-12-31 03:31:58",67.158.16.226,"Mozilla/5.0 (Windows NT 10.0; Win64; x64) AppleWebKit/537.36 (KHTML, like Gecko) Chrome/96.0.4664.110 Safari/537.36",WebKit,Chrome,96.0.4664.110,Windows,10.0,ac0f2dffeffaa78d35a552e03d03f0a8
16,3,"""",test_procedure,stim_test,canvas-button-response,95,246533,0.0-11.0-0.0-1.18,3SD15I2WEBVYX2RZ7BNPTJHHA9P63F,A2196WCNDZULFS,3IXQG4FA22ZT50U3ADA9JW2JRNC9B9,AGXI4,AGXI4,3IXQG4FA22ZT50U3ADA9JW2JRNC9B9,3IXQG4FA22ZT50U3ADA9JW2JRNC9B9,338054,338054,3,0.06,"""",1325.3999998569489,1,stim1,1,Clockwise,true,"""",0.01,60,"""","""","2021-12-31 03:31:58",67.158.16.226,"Mozilla/5.0 (Windows NT 10.0; Win64; x64) AppleWebKit/537.36 (KHTML, like Gecko) Chrome/96.0.4664.110 Safari/537.36",WebKit,Chrome,96.0.4664.110,Windows,10.0,ac0f2dffeffaa78d35a552e03d03f0a8
16,3,"""",test_procedure,confidence_rating,html-slider-response,96,248541,0.0-11.0-0.0-2.18,3SD15I2WEBVYX2RZ7BNPTJHHA9P63F,A2196WCNDZULFS,3IXQG4FA22ZT50U3ADA9JW2JRNC9B9,AGXI4,AGXI4,3IXQG4FA22ZT50U3ADA9JW2JRNC9B9,3IXQG4FA22ZT50U3ADA9JW2JRNC9B9,338054,338054,3,0.06,"""",2007,24,"<div id=""message-div""><p>How confident are you that your clockwise/counter-clockwise response just now was accurate? Please rate your confidence on the slider bar below.</p></div>","""","""","""",50,"""","""","""",24,"2021-12-31 03:31:58",67.158.16.226,"Mozilla/5.0 (Windows NT 10.0; Win64; x64) AppleWebKit/537.36 (KHTML, like Gecko) Chrome/96.0.4664.110 Safari/537.36",WebKit,Chrome,96.0.4664.110,Windows,10.0,ac0f2dffeffaa78d35a552e03d03f0a8
16,3,"""",test_procedure,fixation,html-keyboard-response,97,249042,0.0-11.0-0.0-0.19,3SD15I2WEBVYX2RZ7BNPTJHHA9P63F,A2196WCNDZULFS,3IXQG4FA22ZT50U3ADA9JW2JRNC9B9,AGXI4,AGXI4,3IXQG4FA22ZT50U3ADA9JW2JRNC9B9,3IXQG4FA22ZT50U3ADA9JW2JRNC9B9,338054,338054,3,0.06,"""",null,null,"<div class = fixationbox><div class = fixation>+</div></div>","""","""","""","""","""","""","""","""","2021-12-31 03:31:58",67.158.16.226,"Mozilla/5.0 (Windows NT 10.0; Win64; x64) AppleWebKit/537.36 (KHTML, like Gecko) Chrome/96.0.4664.110 Safari/537.36",WebKit,Chrome,96.0.4664.110,Windows,10.0,ac0f2dffeffaa78d35a552e03d03f0a8
16,3,"""",test_procedure,stim_test,canvas-button-response,98,250228,0.0-11.0-0.0-1.19,3SD15I2WEBVYX2RZ7BNPTJHHA9P63F,A2196WCNDZULFS,3IXQG4FA22ZT50U3ADA9JW2JRNC9B9,AGXI4,AGXI4,3IXQG4FA22ZT50U3ADA9JW2JRNC9B9,3IXQG4FA22ZT50U3ADA9JW2JRNC9B9,338054,338054,3,0.06,"""",1133.3999998569489,0,stim4,0,Counter-clockwise,true,"""",0.3,120,"""","""","2021-12-31 03:31:58",67.158.16.226,"Mozilla/5.0 (Windows NT 10.0; Win64; x64) AppleWebKit/537.36 (KHTML, like Gecko) Chrome/96.0.4664.110 Safari/537.36",WebKit,Chrome,96.0.4664.110,Windows,10.0,ac0f2dffeffaa78d35a552e03d03f0a8
16,3,"""",test_procedure,confidence_rating,html-slider-response,99,253245,0.0-11.0-0.0-2.19,3SD15I2WEBVYX2RZ7BNPTJHHA9P63F,A2196WCNDZULFS,3IXQG4FA22ZT50U3ADA9JW2JRNC9B9,AGXI4,AGXI4,3IXQG4FA22ZT50U3ADA9JW2JRNC9B9,3IXQG4FA22ZT50U3ADA9JW2JRNC9B9,338054,338054,3,0.06,"""",3013.2999999523163,38,"<div id=""message-div""><p>How confident are you that your clockwise/counter-clockwise response just now was accurate? Please rate your confidence on the slider bar below.</p></div>","""","""","""",50,"""","""","""",38,"2021-12-31 03:31:58",67.158.16.226,"Mozilla/5.0 (Windows NT 10.0; Win64; x64) AppleWebKit/537.36 (KHTML, like Gecko) Chrome/96.0.4664.110 Safari/537.36",WebKit,Chrome,96.0.4664.110,Windows,10.0,ac0f2dffeffaa78d35a552e03d03f0a8
16,3,"""",test_procedure,fixation,html-keyboard-response,100,253746,0.0-11.0-0.0-0.20,3SD15I2WEBVYX2RZ7BNPTJHHA9P63F,A2196WCNDZULFS,3IXQG4FA22ZT50U3ADA9JW2JRNC9B9,AGXI4,AGXI4,3IXQG4FA22ZT50U3ADA9JW2JRNC9B9,3IXQG4FA22ZT50U3ADA9JW2JRNC9B9,338054,338054,3,0.06,"""",null,null,"<div class = fixationbox><div class = fixation>+</div></div>","""","""","""","""","""","""","""","""","2021-12-31 03:31:58",67.158.16.226,"Mozilla/5.0 (Windows NT 10.0; Win64; x64) AppleWebKit/537.36 (KHTML, like Gecko) Chrome/96.0.4664.110 Safari/537.36",WebKit,Chrome,96.0.4664.110,Windows,10.0,ac0f2dffeffaa78d35a552e03d03f0a8
16,3,"""",test_procedure,stim_test,canvas-button-response,101,255301,0.0-11.0-0.0-1.20,3SD15I2WEBVYX2RZ7BNPTJHHA9P63F,A2196WCNDZULFS,3IXQG4FA22ZT50U3ADA9JW2JRNC9B9,AGXI4,AGXI4,3IXQG4FA22ZT50U3ADA9JW2JRNC9B9,3IXQG4FA22ZT50U3ADA9JW2JRNC9B9,338054,338054,3,0.06,"""",1474.3999998569489,0,stim2,0,Counter-clockwise,true,"""",0.01,120,"""","""","2021-12-31 03:31:58",67.158.16.226,"Mozilla/5.0 (Windows NT 10.0; Win64; x64) AppleWebKit/537.36 (KHTML, like Gecko) Chrome/96.0.4664.110 Safari/537.36",WebKit,Chrome,96.0.4664.110,Windows,10.0,ac0f2dffeffaa78d35a552e03d03f0a8
16,3,"""",test_procedure,confidence_rating,html-slider-response,102,257524,0.0-11.0-0.0-2.20,3SD15I2WEBVYX2RZ7BNPTJHHA9P63F,A2196WCNDZULFS,3IXQG4FA22ZT50U3ADA9JW2JRNC9B9,AGXI4,AGXI4,3IXQG4FA22ZT50U3ADA9JW2JRNC9B9,3IXQG4FA22ZT50U3ADA9JW2JRNC9B9,338054,338054,3,0.06,"""",2222.7999999523163,7,"<div id=""message-div""><p>How confident are you that your clockwise/counter-clockwise response just now was accurate? Please rate your confidence on the slider bar below.</p></div>","""","""","""",50,"""","""","""",7,"2021-12-31 03:31:58",67.158.16.226,"Mozilla/5.0 (Windows NT 10.0; Win64; x64) AppleWebKit/537.36 (KHTML, like Gecko) Chrome/96.0.4664.110 Safari/537.36",WebKit,Chrome,96.0.4664.110,Windows,10.0,ac0f2dffeffaa78d35a552e03d03f0a8
16,3,"""",test_procedure,fixation,html-keyboard-response,103,258029,0.0-11.0-0.0-0.21,3SD15I2WEBVYX2RZ7BNPTJHHA9P63F,A2196WCNDZULFS,3IXQG4FA22ZT50U3ADA9JW2JRNC9B9,AGXI4,AGXI4,3IXQG4FA22ZT50U3ADA9JW2JRNC9B9,3IXQG4FA22ZT50U3ADA9JW2JRNC9B9,338054,338054,3,0.06,"""",null,null,"<div class = fixationbox><div class = fixation>+</div></div>","""","""","""","""","""","""","""","""","2021-12-31 03:31:58",67.158.16.226,"Mozilla/5.0 (Windows NT 10.0; Win64; x64) AppleWebKit/537.36 (KHTML, like Gecko) Chrome/96.0.4664.110 Safari/537.36",WebKit,Chrome,96.0.4664.110,Windows,10.0,ac0f2dffeffaa78d35a552e03d03f0a8
16,3,"""",test_procedure,stim_test,canvas-button-response,104,259341,0.0-11.0-0.0-1.21,3SD15I2WEBVYX2RZ7BNPTJHHA9P63F,A2196WCNDZULFS,3IXQG4FA22ZT50U3ADA9JW2JRNC9B9,AGXI4,AGXI4,3IXQG4FA22ZT50U3ADA9JW2JRNC9B9,3IXQG4FA22ZT50U3ADA9JW2JRNC9B9,338054,338054,3,0.06,"""",1241.9000000953674,1,stim2,0,Counter-clockwise,false,"""",0.01,120,"""","""","2021-12-31 03:31:58",67.158.16.226,"Mozilla/5.0 (Windows NT 10.0; Win64; x64) AppleWebKit/537.36 (KHTML, like Gecko) Chrome/96.0.4664.110 Safari/537.36",WebKit,Chrome,96.0.4664.110,Windows,10.0,ac0f2dffeffaa78d35a552e03d03f0a8
16,3,"""",test_procedure,confidence_rating,html-slider-response,105,261709,0.0-11.0-0.0-2.21,3SD15I2WEBVYX2RZ7BNPTJHHA9P63F,A2196WCNDZULFS,3IXQG4FA22ZT50U3ADA9JW2JRNC9B9,AGXI4,AGXI4,3IXQG4FA22ZT50U3ADA9JW2JRNC9B9,3IXQG4FA22ZT50U3ADA9JW2JRNC9B9,338054,338054,3,0.06,"""",2367.199999809265,32,"<div id=""message-div""><p>How confident are you that your clockwise/counter-clockwise response just now was accurate? Please rate your confidence on the slider bar below.</p></div>","""","""","""",50,"""","""","""",32,"2021-12-31 03:31:58",67.158.16.226,"Mozilla/5.0 (Windows NT 10.0; Win64; x64) AppleWebKit/537.36 (KHTML, like Gecko) Chrome/96.0.4664.110 Safari/537.36",WebKit,Chrome,96.0.4664.110,Windows,10.0,ac0f2dffeffaa78d35a552e03d03f0a8
16,3,"""",test_procedure,fixation,html-keyboard-response,106,262210,0.0-11.0-0.0-0.22,3SD15I2WEBVYX2RZ7BNPTJHHA9P63F,A2196WCNDZULFS,3IXQG4FA22ZT50U3ADA9JW2JRNC9B9,AGXI4,AGXI4,3IXQG4FA22ZT50U3ADA9JW2JRNC9B9,3IXQG4FA22ZT50U3ADA9JW2JRNC9B9,338054,338054,3,0.06,"""",null,null,"<div class = fixationbox><div class = fixation>+</div></div>","""","""","""","""","""","""","""","""","2021-12-31 03:31:58",67.158.16.226,"Mozilla/5.0 (Windows NT 10.0; Win64; x64) AppleWebKit/537.36 (KHTML, like Gecko) Chrome/96.0.4664.110 Safari/537.36",WebKit,Chrome,96.0.4664.110,Windows,10.0,ac0f2dffeffaa78d35a552e03d03f0a8
16,3,"""",test_procedure,stim_test,canvas-button-response,107,263245,0.0-11.0-0.0-1.22,3SD15I2WEBVYX2RZ7BNPTJHHA9P63F,A2196WCNDZULFS,3IXQG4FA22ZT50U3ADA9JW2JRNC9B9,AGXI4,AGXI4,3IXQG4FA22ZT50U3ADA9JW2JRNC9B9,3IXQG4FA22ZT50U3ADA9JW2JRNC9B9,338054,338054,3,0.06,"""",973.9000000953674,1,stim3,1,Clockwise,true,"""",0.3,60,"""","""","2021-12-31 03:31:58",67.158.16.226,"Mozilla/5.0 (Windows NT 10.0; Win64; x64) AppleWebKit/537.36 (KHTML, like Gecko) Chrome/96.0.4664.110 Safari/537.36",WebKit,Chrome,96.0.4664.110,Windows,10.0,ac0f2dffeffaa78d35a552e03d03f0a8
16,3,"""",test_procedure,confidence_rating,html-slider-response,108,265085,0.0-11.0-0.0-2.22,3SD15I2WEBVYX2RZ7BNPTJHHA9P63F,A2196WCNDZULFS,3IXQG4FA22ZT50U3ADA9JW2JRNC9B9,AGXI4,AGXI4,3IXQG4FA22ZT50U3ADA9JW2JRNC9B9,3IXQG4FA22ZT50U3ADA9JW2JRNC9B9,338054,338054,3,0.06,"""",1837.0999999046326,81,"<div id=""message-div""><p>How confident are you that your clockwise/counter-clockwise response just now was accurate? Please rate your confidence on the slider bar below.</p></div>","""","""","""",50,"""","""","""",81,"2021-12-31 03:31:58",67.158.16.226,"Mozilla/5.0 (Windows NT 10.0; Win64; x64) AppleWebKit/537.36 (KHTML, like Gecko) Chrome/96.0.4664.110 Safari/537.36",WebKit,Chrome,96.0.4664.110,Windows,10.0,ac0f2dffeffaa78d35a552e03d03f0a8
16,3,"""",test_procedure,fixation,html-keyboard-response,109,265585,0.0-11.0-0.0-0.23,3SD15I2WEBVYX2RZ7BNPTJHHA9P63F,A2196WCNDZULFS,3IXQG4FA22ZT50U3ADA9JW2JRNC9B9,AGXI4,AGXI4,3IXQG4FA22ZT50U3ADA9JW2JRNC9B9,3IXQG4FA22ZT50U3ADA9JW2JRNC9B9,338054,338054,3,0.06,"""",null,null,"<div class = fixationbox><div class = fixation>+</div></div>","""","""","""","""","""","""","""","""","2021-12-31 03:31:58",67.158.16.226,"Mozilla/5.0 (Windows NT 10.0; Win64; x64) AppleWebKit/537.36 (KHTML, like Gecko) Chrome/96.0.4664.110 Safari/537.36",WebKit,Chrome,96.0.4664.110,Windows,10.0,ac0f2dffeffaa78d35a552e03d03f0a8
16,3,"""",test_procedure,stim_test,canvas-button-response,110,266828,0.0-11.0-0.0-1.23,3SD15I2WEBVYX2RZ7BNPTJHHA9P63F,A2196WCNDZULFS,3IXQG4FA22ZT50U3ADA9JW2JRNC9B9,AGXI4,AGXI4,3IXQG4FA22ZT50U3ADA9JW2JRNC9B9,3IXQG4FA22ZT50U3ADA9JW2JRNC9B9,338054,338054,3,0.06,"""",1160.3999998569489,1,stim3,1,Clockwise,true,"""",0.3,60,"""","""","2021-12-31 03:31:58",67.158.16.226,"Mozilla/5.0 (Windows NT 10.0; Win64; x64) AppleWebKit/537.36 (KHTML, like Gecko) Chrome/96.0.4664.110 Safari/537.36",WebKit,Chrome,96.0.4664.110,Windows,10.0,ac0f2dffeffaa78d35a552e03d03f0a8
16,3,"""",test_procedure,confidence_rating,html-slider-response,111,268621,0.0-11.0-0.0-2.23,3SD15I2WEBVYX2RZ7BNPTJHHA9P63F,A2196WCNDZULFS,3IXQG4FA22ZT50U3ADA9JW2JRNC9B9,AGXI4,AGXI4,3IXQG4FA22ZT50U3ADA9JW2JRNC9B9,3IXQG4FA22ZT50U3ADA9JW2JRNC9B9,338054,338054,3,0.06,"""",1791.3999998569489,60,"<div id=""message-div""><p>How confident are you that your clockwise/counter-clockwise response just now was accurate? Please rate your confidence on the slider bar below.</p></div>","""","""","""",50,"""","""","""",60,"2021-12-31 03:31:58",67.158.16.226,"Mozilla/5.0 (Windows NT 10.0; Win64; x64) AppleWebKit/537.36 (KHTML, like Gecko) Chrome/96.0.4664.110 Safari/537.36",WebKit,Chrome,96.0.4664.110,Windows,10.0,ac0f2dffeffaa78d35a552e03d03f0a8
16,3,"""",test_procedure,rest_block,html-button-response,112,273109,0.0-11.0-0.0-3.23-0.23,3SD15I2WEBVYX2RZ7BNPTJHHA9P63F,A2196WCNDZULFS,3IXQG4FA22ZT50U3ADA9JW2JRNC9B9,AGXI4,AGXI4,3IXQG4FA22ZT50U3ADA9JW2JRNC9B9,3IXQG4FA22ZT50U3ADA9JW2JRNC9B9,338054,338054,3,0.06,"""",4486.5,0,"[""<p>You responded correctly on 83.33% of the trials in the previous section.</p><p>Time to take a break!</p><p>Once you're ready, press the \"Continue\" button to continue.</p>""]","""","""","""","""","""","""","""","""","2021-12-31 03:31:58",67.158.16.226,"Mozilla/5.0 (Windows NT 10.0; Win64; x64) AppleWebKit/537.36 (KHTML, like Gecko) Chrome/96.0.4664.110 Safari/537.36",WebKit,Chrome,96.0.4664.110,Windows,10.0,ac0f2dffeffaa78d35a552e03d03f0a8
16,3,"""",test_procedure,fixation,html-keyboard-response,113,273613,0.0-11.0-0.1-0.24,3SD15I2WEBVYX2RZ7BNPTJHHA9P63F,A2196WCNDZULFS,3IXQG4FA22ZT50U3ADA9JW2JRNC9B9,AGXI4,AGXI4,3IXQG4FA22ZT50U3ADA9JW2JRNC9B9,3IXQG4FA22ZT50U3ADA9JW2JRNC9B9,338054,338054,3,0.06,"""",null,null,"<div class = fixationbox><div class = fixation>+</div></div>","""","""","""","""","""","""","""","""","2021-12-31 03:31:58",67.158.16.226,"Mozilla/5.0 (Windows NT 10.0; Win64; x64) AppleWebKit/537.36 (KHTML, like Gecko) Chrome/96.0.4664.110 Safari/537.36",WebKit,Chrome,96.0.4664.110,Windows,10.0,ac0f2dffeffaa78d35a552e03d03f0a8
16,3,"""",test_procedure,stim_test,canvas-button-response,114,274749,0.0-11.0-0.1-1.24,3SD15I2WEBVYX2RZ7BNPTJHHA9P63F,A2196WCNDZULFS,3IXQG4FA22ZT50U3ADA9JW2JRNC9B9,AGXI4,AGXI4,3IXQG4FA22ZT50U3ADA9JW2JRNC9B9,3IXQG4FA22ZT50U3ADA9JW2JRNC9B9,338054,338054,3,0.06,"""",1063.7999999523163,0,stim4,0,Counter-clockwise,true,"""",0.3,120,"""","""","2021-12-31 03:31:58",67.158.16.226,"Mozilla/5.0 (Windows NT 10.0; Win64; x64) AppleWebKit/537.36 (KHTML, like Gecko) Chrome/96.0.4664.110 Safari/537.36",WebKit,Chrome,96.0.4664.110,Windows,10.0,ac0f2dffeffaa78d35a552e03d03f0a8
16,3,"""",test_procedure,confidence_rating,html-slider-response,115,277044,0.0-11.0-0.1-2.24,3SD15I2WEBVYX2RZ7BNPTJHHA9P63F,A2196WCNDZULFS,3IXQG4FA22ZT50U3ADA9JW2JRNC9B9,AGXI4,AGXI4,3IXQG4FA22ZT50U3ADA9JW2JRNC9B9,3IXQG4FA22ZT50U3ADA9JW2JRNC9B9,338054,338054,3,0.06,"""",2294.899999856949,65,"<div id=""message-div""><p>How confident are you that your clockwise/counter-clockwise response just now was accurate? Please rate your confidence on the slider bar below.</p></div>","""","""","""",50,"""","""","""",65,"2021-12-31 03:31:58",67.158.16.226,"Mozilla/5.0 (Windows NT 10.0; Win64; x64) AppleWebKit/537.36 (KHTML, like Gecko) Chrome/96.0.4664.110 Safari/537.36",WebKit,Chrome,96.0.4664.110,Windows,10.0,ac0f2dffeffaa78d35a552e03d03f0a8
16,3,"""",test_procedure,fixation,html-keyboard-response,116,277546,0.0-11.0-0.1-0.25,3SD15I2WEBVYX2RZ7BNPTJHHA9P63F,A2196WCNDZULFS,3IXQG4FA22ZT50U3ADA9JW2JRNC9B9,AGXI4,AGXI4,3IXQG4FA22ZT50U3ADA9JW2JRNC9B9,3IXQG4FA22ZT50U3ADA9JW2JRNC9B9,338054,338054,3,0.06,"""",null,null,"<div class = fixationbox><div class = fixation>+</div></div>","""","""","""","""","""","""","""","""","2021-12-31 03:31:58",67.158.16.226,"Mozilla/5.0 (Windows NT 10.0; Win64; x64) AppleWebKit/537.36 (KHTML, like Gecko) Chrome/96.0.4664.110 Safari/537.36",WebKit,Chrome,96.0.4664.110,Windows,10.0,ac0f2dffeffaa78d35a552e03d03f0a8
16,3,"""",test_procedure,stim_test,canvas-button-response,117,278949,0.0-11.0-0.1-1.25,3SD15I2WEBVYX2RZ7BNPTJHHA9P63F,A2196WCNDZULFS,3IXQG4FA22ZT50U3ADA9JW2JRNC9B9,AGXI4,AGXI4,3IXQG4FA22ZT50U3ADA9JW2JRNC9B9,3IXQG4FA22ZT50U3ADA9JW2JRNC9B9,338054,338054,3,0.06,"""",1346.5999999046326,0,stim2,0,Counter-clockwise,true,"""",0.01,120,"""","""","2021-12-31 03:31:58",67.158.16.226,"Mozilla/5.0 (Windows NT 10.0; Win64; x64) AppleWebKit/537.36 (KHTML, like Gecko) Chrome/96.0.4664.110 Safari/537.36",WebKit,Chrome,96.0.4664.110,Windows,10.0,ac0f2dffeffaa78d35a552e03d03f0a8
16,3,"""",test_procedure,confidence_rating,html-slider-response,118,280836,0.0-11.0-0.1-2.25,3SD15I2WEBVYX2RZ7BNPTJHHA9P63F,A2196WCNDZULFS,3IXQG4FA22ZT50U3ADA9JW2JRNC9B9,AGXI4,AGXI4,3IXQG4FA22ZT50U3ADA9JW2JRNC9B9,3IXQG4FA22ZT50U3ADA9JW2JRNC9B9,338054,338054,3,0.06,"""",1883.7999999523163,32,"<div id=""message-div""><p>How confident are you that your clockwise/counter-clockwise response just now was accurate? Please rate your confidence on the slider bar below.</p></div>","""","""","""",50,"""","""","""",32,"2021-12-31 03:31:58",67.158.16.226,"Mozilla/5.0 (Windows NT 10.0; Win64; x64) AppleWebKit/537.36 (KHTML, like Gecko) Chrome/96.0.4664.110 Safari/537.36",WebKit,Chrome,96.0.4664.110,Windows,10.0,ac0f2dffeffaa78d35a552e03d03f0a8
16,3,"""",test_procedure,fixation,html-keyboard-response,119,281337,0.0-11.0-0.1-0.26,3SD15I2WEBVYX2RZ7BNPTJHHA9P63F,A2196WCNDZULFS,3IXQG4FA22ZT50U3ADA9JW2JRNC9B9,AGXI4,AGXI4,3IXQG4FA22ZT50U3ADA9JW2JRNC9B9,3IXQG4FA22ZT50U3ADA9JW2JRNC9B9,338054,338054,3,0.06,"""",null,null,"<div class = fixationbox><div class = fixation>+</div></div>","""","""","""","""","""","""","""","""","2021-12-31 03:31:58",67.158.16.226,"Mozilla/5.0 (Windows NT 10.0; Win64; x64) AppleWebKit/537.36 (KHTML, like Gecko) Chrome/96.0.4664.110 Safari/537.36",WebKit,Chrome,96.0.4664.110,Windows,10.0,ac0f2dffeffaa78d35a552e03d03f0a8
16,3,"""",test_procedure,stim_test,canvas-button-response,120,282581,0.0-11.0-0.1-1.26,3SD15I2WEBVYX2RZ7BNPTJHHA9P63F,A2196WCNDZULFS,3IXQG4FA22ZT50U3ADA9JW2JRNC9B9,AGXI4,AGXI4,3IXQG4FA22ZT50U3ADA9JW2JRNC9B9,3IXQG4FA22ZT50U3ADA9JW2JRNC9B9,338054,338054,3,0.06,"""",1176.2000000476837,0,stim4,0,Counter-clockwise,true,"""",0.3,120,"""","""","2021-12-31 03:31:58",67.158.16.226,"Mozilla/5.0 (Windows NT 10.0; Win64; x64) AppleWebKit/537.36 (KHTML, like Gecko) Chrome/96.0.4664.110 Safari/537.36",WebKit,Chrome,96.0.4664.110,Windows,10.0,ac0f2dffeffaa78d35a552e03d03f0a8
16,3,"""",test_procedure,confidence_rating,html-slider-response,121,284300,0.0-11.0-0.1-2.26,3SD15I2WEBVYX2RZ7BNPTJHHA9P63F,A2196WCNDZULFS,3IXQG4FA22ZT50U3ADA9JW2JRNC9B9,AGXI4,AGXI4,3IXQG4FA22ZT50U3ADA9JW2JRNC9B9,3IXQG4FA22ZT50U3ADA9JW2JRNC9B9,338054,338054,3,0.06,"""",1719.1000001430511,20,"<div id=""message-div""><p>How confident are you that your clockwise/counter-clockwise response just now was accurate? Please rate your confidence on the slider bar below.</p></div>","""","""","""",50,"""","""","""",20,"2021-12-31 03:31:58",67.158.16.226,"Mozilla/5.0 (Windows NT 10.0; Win64; x64) AppleWebKit/537.36 (KHTML, like Gecko) Chrome/96.0.4664.110 Safari/537.36",WebKit,Chrome,96.0.4664.110,Windows,10.0,ac0f2dffeffaa78d35a552e03d03f0a8
16,3,"""",test_procedure,fixation,html-keyboard-response,122,284801,0.0-11.0-0.1-0.27,3SD15I2WEBVYX2RZ7BNPTJHHA9P63F,A2196WCNDZULFS,3IXQG4FA22ZT50U3ADA9JW2JRNC9B9,AGXI4,AGXI4,3IXQG4FA22ZT50U3ADA9JW2JRNC9B9,3IXQG4FA22ZT50U3ADA9JW2JRNC9B9,338054,338054,3,0.06,"""",null,null,"<div class = fixationbox><div class = fixation>+</div></div>","""","""","""","""","""","""","""","""","2021-12-31 03:31:58",67.158.16.226,"Mozilla/5.0 (Windows NT 10.0; Win64; x64) AppleWebKit/537.36 (KHTML, like Gecko) Chrome/96.0.4664.110 Safari/537.36",WebKit,Chrome,96.0.4664.110,Windows,10.0,ac0f2dffeffaa78d35a552e03d03f0a8
16,3,"""",test_procedure,stim_test,canvas-button-response,123,286092,0.0-11.0-0.1-1.27,3SD15I2WEBVYX2RZ7BNPTJHHA9P63F,A2196WCNDZULFS,3IXQG4FA22ZT50U3ADA9JW2JRNC9B9,AGXI4,AGXI4,3IXQG4FA22ZT50U3ADA9JW2JRNC9B9,3IXQG4FA22ZT50U3ADA9JW2JRNC9B9,338054,338054,3,0.06,"""",1222.5,1,catchStim3,1,Clockwise,true,"""",0.01,60,0.001,"""","2021-12-31 03:31:58",67.158.16.226,"Mozilla/5.0 (Windows NT 10.0; Win64; x64) AppleWebKit/537.36 (KHTML, like Gecko) Chrome/96.0.4664.110 Safari/537.36",WebKit,Chrome,96.0.4664.110,Windows,10.0,ac0f2dffeffaa78d35a552e03d03f0a8
16,3,"""",test_procedure,confidence_rating,html-slider-response,124,288228,0.0-11.0-0.1-2.27,3SD15I2WEBVYX2RZ7BNPTJHHA9P63F,A2196WCNDZULFS,3IXQG4FA22ZT50U3ADA9JW2JRNC9B9,AGXI4,AGXI4,3IXQG4FA22ZT50U3ADA9JW2JRNC9B9,3IXQG4FA22ZT50U3ADA9JW2JRNC9B9,338054,338054,3,0.06,"""",2135,10,"<div id=""message-div""><p>How confident are you that your clockwise/counter-clockwise response just now was accurate? Please rate your confidence on the slider bar below.</p></div>","""","""","""",50,"""","""","""",10,"2021-12-31 03:31:58",67.158.16.226,"Mozilla/5.0 (Windows NT 10.0; Win64; x64) AppleWebKit/537.36 (KHTML, like Gecko) Chrome/96.0.4664.110 Safari/537.36",WebKit,Chrome,96.0.4664.110,Windows,10.0,ac0f2dffeffaa78d35a552e03d03f0a8
16,3,"""",test_procedure,fixation,html-keyboard-response,125,288728,0.0-11.0-0.1-0.28,3SD15I2WEBVYX2RZ7BNPTJHHA9P63F,A2196WCNDZULFS,3IXQG4FA22ZT50U3ADA9JW2JRNC9B9,AGXI4,AGXI4,3IXQG4FA22ZT50U3ADA9JW2JRNC9B9,3IXQG4FA22ZT50U3ADA9JW2JRNC9B9,338054,338054,3,0.06,"""",null,null,"<div class = fixationbox><div class = fixation>+</div></div>","""","""","""","""","""","""","""","""","2021-12-31 03:31:58",67.158.16.226,"Mozilla/5.0 (Windows NT 10.0; Win64; x64) AppleWebKit/537.36 (KHTML, like Gecko) Chrome/96.0.4664.110 Safari/537.36",WebKit,Chrome,96.0.4664.110,Windows,10.0,ac0f2dffeffaa78d35a552e03d03f0a8
16,3,"""",test_procedure,stim_test,canvas-button-response,126,290516,0.0-11.0-0.1-1.28,3SD15I2WEBVYX2RZ7BNPTJHHA9P63F,A2196WCNDZULFS,3IXQG4FA22ZT50U3ADA9JW2JRNC9B9,AGXI4,AGXI4,3IXQG4FA22ZT50U3ADA9JW2JRNC9B9,3IXQG4FA22ZT50U3ADA9JW2JRNC9B9,338054,338054,3,0.06,"""",1723.7999999523163,0,catchStim4,0,Counter-clockwise,true,"""",0.01,120,0.001,"""","2021-12-31 03:31:58",67.158.16.226,"Mozilla/5.0 (Windows NT 10.0; Win64; x64) AppleWebKit/537.36 (KHTML, like Gecko) Chrome/96.0.4664.110 Safari/537.36",WebKit,Chrome,96.0.4664.110,Windows,10.0,ac0f2dffeffaa78d35a552e03d03f0a8
16,3,"""",test_procedure,confidence_rating,html-slider-response,127,292556,0.0-11.0-0.1-2.28,3SD15I2WEBVYX2RZ7BNPTJHHA9P63F,A2196WCNDZULFS,3IXQG4FA22ZT50U3ADA9JW2JRNC9B9,AGXI4,AGXI4,3IXQG4FA22ZT50U3ADA9JW2JRNC9B9,3IXQG4FA22ZT50U3ADA9JW2JRNC9B9,338054,338054,3,0.06,"""",2036.5999999046326,2,"<div id=""message-div""><p>How confident are you that your clockwise/counter-clockwise response just now was accurate? Please rate your confidence on the slider bar below.</p></div>","""","""","""",50,"""","""","""",2,"2021-12-31 03:31:58",67.158.16.226,"Mozilla/5.0 (Windows NT 10.0; Win64; x64) AppleWebKit/537.36 (KHTML, like Gecko) Chrome/96.0.4664.110 Safari/537.36",WebKit,Chrome,96.0.4664.110,Windows,10.0,ac0f2dffeffaa78d35a552e03d03f0a8
16,3,"""",test_procedure,fixation,html-keyboard-response,128,293056,0.0-11.0-0.1-0.29,3SD15I2WEBVYX2RZ7BNPTJHHA9P63F,A2196WCNDZULFS,3IXQG4FA22ZT50U3ADA9JW2JRNC9B9,AGXI4,AGXI4,3IXQG4FA22ZT50U3ADA9JW2JRNC9B9,3IXQG4FA22ZT50U3ADA9JW2JRNC9B9,338054,338054,3,0.06,"""",null,null,"<div class = fixationbox><div class = fixation>+</div></div>","""","""","""","""","""","""","""","""","2021-12-31 03:31:58",67.158.16.226,"Mozilla/5.0 (Windows NT 10.0; Win64; x64) AppleWebKit/537.36 (KHTML, like Gecko) Chrome/96.0.4664.110 Safari/537.36",WebKit,Chrome,96.0.4664.110,Windows,10.0,ac0f2dffeffaa78d35a552e03d03f0a8
16,3,"""",test_procedure,stim_test,canvas-button-response,129,294148,0.0-11.0-0.1-1.29,3SD15I2WEBVYX2RZ7BNPTJHHA9P63F,A2196WCNDZULFS,3IXQG4FA22ZT50U3ADA9JW2JRNC9B9,AGXI4,AGXI4,3IXQG4FA22ZT50U3ADA9JW2JRNC9B9,3IXQG4FA22ZT50U3ADA9JW2JRNC9B9,338054,338054,3,0.06,"""",1021.2999999523163,1,stim1,1,Clockwise,true,"""",0.01,60,"""","""","2021-12-31 03:31:58",67.158.16.226,"Mozilla/5.0 (Windows NT 10.0; Win64; x64) AppleWebKit/537.36 (KHTML, like Gecko) Chrome/96.0.4664.110 Safari/537.36",WebKit,Chrome,96.0.4664.110,Windows,10.0,ac0f2dffeffaa78d35a552e03d03f0a8
16,3,"""",test_procedure,confidence_rating,html-slider-response,130,296204,0.0-11.0-0.1-2.29,3SD15I2WEBVYX2RZ7BNPTJHHA9P63F,A2196WCNDZULFS,3IXQG4FA22ZT50U3ADA9JW2JRNC9B9,AGXI4,AGXI4,3IXQG4FA22ZT50U3ADA9JW2JRNC9B9,3IXQG4FA22ZT50U3ADA9JW2JRNC9B9,338054,338054,3,0.06,"""",2054.800000190735,48,"<div id=""message-div""><p>How confident are you that your clockwise/counter-clockwise response just now was accurate? Please rate your confidence on the slider bar below.</p></div>","""","""","""",50,"""","""","""",48,"2021-12-31 03:31:58",67.158.16.226,"Mozilla/5.0 (Windows NT 10.0; Win64; x64) AppleWebKit/537.36 (KHTML, like Gecko) Chrome/96.0.4664.110 Safari/537.36",WebKit,Chrome,96.0.4664.110,Windows,10.0,ac0f2dffeffaa78d35a552e03d03f0a8
16,3,"""",test_procedure,fixation,html-keyboard-response,131,296707,0.0-11.0-0.1-0.30,3SD15I2WEBVYX2RZ7BNPTJHHA9P63F,A2196WCNDZULFS,3IXQG4FA22ZT50U3ADA9JW2JRNC9B9,AGXI4,AGXI4,3IXQG4FA22ZT50U3ADA9JW2JRNC9B9,3IXQG4FA22ZT50U3ADA9JW2JRNC9B9,338054,338054,3,0.06,"""",null,null,"<div class = fixationbox><div class = fixation>+</div></div>","""","""","""","""","""","""","""","""","2021-12-31 03:31:58",67.158.16.226,"Mozilla/5.0 (Windows NT 10.0; Win64; x64) AppleWebKit/537.36 (KHTML, like Gecko) Chrome/96.0.4664.110 Safari/537.36",WebKit,Chrome,96.0.4664.110,Windows,10.0,ac0f2dffeffaa78d35a552e03d03f0a8
16,3,"""",test_procedure,stim_test,canvas-button-response,132,298059,0.0-11.0-0.1-1.30,3SD15I2WEBVYX2RZ7BNPTJHHA9P63F,A2196WCNDZULFS,3IXQG4FA22ZT50U3ADA9JW2JRNC9B9,AGXI4,AGXI4,3IXQG4FA22ZT50U3ADA9JW2JRNC9B9,3IXQG4FA22ZT50U3ADA9JW2JRNC9B9,338054,338054,3,0.06,"""",1291.7999999523163,1,stim4,0,Counter-clockwise,false,"""",0.3,120,"""","""","2021-12-31 03:31:58",67.158.16.226,"Mozilla/5.0 (Windows NT 10.0; Win64; x64) AppleWebKit/537.36 (KHTML, like Gecko) Chrome/96.0.4664.110 Safari/537.36",WebKit,Chrome,96.0.4664.110,Windows,10.0,ac0f2dffeffaa78d35a552e03d03f0a8
16,3,"""",test_procedure,confidence_rating,html-slider-response,133,300188,0.0-11.0-0.1-2.30,3SD15I2WEBVYX2RZ7BNPTJHHA9P63F,A2196WCNDZULFS,3IXQG4FA22ZT50U3ADA9JW2JRNC9B9,AGXI4,AGXI4,3IXQG4FA22ZT50U3ADA9JW2JRNC9B9,3IXQG4FA22ZT50U3ADA9JW2JRNC9B9,338054,338054,3,0.06,"""",2127.300000190735,19,"<div id=""message-div""><p>How confident are you that your clockwise/counter-clockwise response just now was accurate? Please rate your confidence on the slider bar below.</p></div>","""","""","""",50,"""","""","""",19,"2021-12-31 03:31:58",67.158.16.226,"Mozilla/5.0 (Windows NT 10.0; Win64; x64) AppleWebKit/537.36 (KHTML, like Gecko) Chrome/96.0.4664.110 Safari/537.36",WebKit,Chrome,96.0.4664.110,Windows,10.0,ac0f2dffeffaa78d35a552e03d03f0a8
16,3,"""",test_procedure,fixation,html-keyboard-response,134,300689,0.0-11.0-0.1-0.31,3SD15I2WEBVYX2RZ7BNPTJHHA9P63F,A2196WCNDZULFS,3IXQG4FA22ZT50U3ADA9JW2JRNC9B9,AGXI4,AGXI4,3IXQG4FA22ZT50U3ADA9JW2JRNC9B9,3IXQG4FA22ZT50U3ADA9JW2JRNC9B9,338054,338054,3,0.06,"""",null,null,"<div class = fixationbox><div class = fixation>+</div></div>","""","""","""","""","""","""","""","""","2021-12-31 03:31:58",67.158.16.226,"Mozilla/5.0 (Windows NT 10.0; Win64; x64) AppleWebKit/537.36 (KHTML, like Gecko) Chrome/96.0.4664.110 Safari/537.36",WebKit,Chrome,96.0.4664.110,Windows,10.0,ac0f2dffeffaa78d35a552e03d03f0a8
16,3,"""",test_procedure,stim_test,canvas-button-response,135,302155,0.0-11.0-0.1-1.31,3SD15I2WEBVYX2RZ7BNPTJHHA9P63F,A2196WCNDZULFS,3IXQG4FA22ZT50U3ADA9JW2JRNC9B9,AGXI4,AGXI4,3IXQG4FA22ZT50U3ADA9JW2JRNC9B9,3IXQG4FA22ZT50U3ADA9JW2JRNC9B9,338054,338054,3,0.06,"""",1394.3999998569489,0,catchStim6,0,Counter-clockwise,true,"""",0.3,120,0.6,"""","2021-12-31 03:31:58",67.158.16.226,"Mozilla/5.0 (Windows NT 10.0; Win64; x64) AppleWebKit/537.36 (KHTML, like Gecko) Chrome/96.0.4664.110 Safari/537.36",WebKit,Chrome,96.0.4664.110,Windows,10.0,ac0f2dffeffaa78d35a552e03d03f0a8
16,3,"""",test_procedure,confidence_rating,html-slider-response,136,304483,0.0-11.0-0.1-2.31,3SD15I2WEBVYX2RZ7BNPTJHHA9P63F,A2196WCNDZULFS,3IXQG4FA22ZT50U3ADA9JW2JRNC9B9,AGXI4,AGXI4,3IXQG4FA22ZT50U3ADA9JW2JRNC9B9,3IXQG4FA22ZT50U3ADA9JW2JRNC9B9,338054,338054,3,0.06,"""",2324.7000000476837,100,"<div id=""message-div""><p>How confident are you that your clockwise/counter-clockwise response just now was accurate? Please rate your confidence on the slider bar below.</p></div>","""","""","""",50,"""","""","""",100,"2021-12-31 03:31:58",67.158.16.226,"Mozilla/5.0 (Windows NT 10.0; Win64; x64) AppleWebKit/537.36 (KHTML, like Gecko) Chrome/96.0.4664.110 Safari/537.36",WebKit,Chrome,96.0.4664.110,Windows,10.0,ac0f2dffeffaa78d35a552e03d03f0a8
16,3,"""",test_procedure,fixation,html-keyboard-response,137,304986,0.0-11.0-0.1-0.32,3SD15I2WEBVYX2RZ7BNPTJHHA9P63F,A2196WCNDZULFS,3IXQG4FA22ZT50U3ADA9JW2JRNC9B9,AGXI4,AGXI4,3IXQG4FA22ZT50U3ADA9JW2JRNC9B9,3IXQG4FA22ZT50U3ADA9JW2JRNC9B9,338054,338054,3,0.06,"""",null,null,"<div class = fixationbox><div class = fixation>+</div></div>","""","""","""","""","""","""","""","""","2021-12-31 03:31:58",67.158.16.226,"Mozilla/5.0 (Windows NT 10.0; Win64; x64) AppleWebKit/537.36 (KHTML, like Gecko) Chrome/96.0.4664.110 Safari/537.36",WebKit,Chrome,96.0.4664.110,Windows,10.0,ac0f2dffeffaa78d35a552e03d03f0a8
16,3,"""",test_procedure,stim_test,canvas-button-response,138,307460,0.0-11.0-0.1-1.32,3SD15I2WEBVYX2RZ7BNPTJHHA9P63F,A2196WCNDZULFS,3IXQG4FA22ZT50U3ADA9JW2JRNC9B9,AGXI4,AGXI4,3IXQG4FA22ZT50U3ADA9JW2JRNC9B9,3IXQG4FA22ZT50U3ADA9JW2JRNC9B9,338054,338054,3,0.06,"""",2418.2000000476837,0,catchStim7,1,Clockwise,false,"""",0.3,60,0.001,"""","2021-12-31 03:31:58",67.158.16.226,"Mozilla/5.0 (Windows NT 10.0; Win64; x64) AppleWebKit/537.36 (KHTML, like Gecko) Chrome/96.0.4664.110 Safari/537.36",WebKit,Chrome,96.0.4664.110,Windows,10.0,ac0f2dffeffaa78d35a552e03d03f0a8
16,3,"""",test_procedure,confidence_rating,html-slider-response,139,309459,0.0-11.0-0.1-2.32,3SD15I2WEBVYX2RZ7BNPTJHHA9P63F,A2196WCNDZULFS,3IXQG4FA22ZT50U3ADA9JW2JRNC9B9,AGXI4,AGXI4,3IXQG4FA22ZT50U3ADA9JW2JRNC9B9,3IXQG4FA22ZT50U3ADA9JW2JRNC9B9,338054,338054,3,0.06,"""",1998.7999999523163,7,"<div id=""message-div""><p>How confident are you that your clockwise/counter-clockwise response just now was accurate? Please rate your confidence on the slider bar below.</p></div>","""","""","""",50,"""","""","""",7,"2021-12-31 03:31:58",67.158.16.226,"Mozilla/5.0 (Windows NT 10.0; Win64; x64) AppleWebKit/537.36 (KHTML, like Gecko) Chrome/96.0.4664.110 Safari/537.36",WebKit,Chrome,96.0.4664.110,Windows,10.0,ac0f2dffeffaa78d35a552e03d03f0a8
16,3,"""",test_procedure,fixation,html-keyboard-response,140,309963,0.0-11.0-0.1-0.33,3SD15I2WEBVYX2RZ7BNPTJHHA9P63F,A2196WCNDZULFS,3IXQG4FA22ZT50U3ADA9JW2JRNC9B9,AGXI4,AGXI4,3IXQG4FA22ZT50U3ADA9JW2JRNC9B9,3IXQG4FA22ZT50U3ADA9JW2JRNC9B9,338054,338054,3,0.06,"""",null,null,"<div class = fixationbox><div class = fixation>+</div></div>","""","""","""","""","""","""","""","""","2021-12-31 03:31:58",67.158.16.226,"Mozilla/5.0 (Windows NT 10.0; Win64; x64) AppleWebKit/537.36 (KHTML, like Gecko) Chrome/96.0.4664.110 Safari/537.36",WebKit,Chrome,96.0.4664.110,Windows,10.0,ac0f2dffeffaa78d35a552e03d03f0a8
16,3,"""",test_procedure,stim_test,canvas-button-response,141,311156,0.0-11.0-0.1-1.33,3SD15I2WEBVYX2RZ7BNPTJHHA9P63F,A2196WCNDZULFS,3IXQG4FA22ZT50U3ADA9JW2JRNC9B9,AGXI4,AGXI4,3IXQG4FA22ZT50U3ADA9JW2JRNC9B9,3IXQG4FA22ZT50U3ADA9JW2JRNC9B9,338054,338054,3,0.06,"""",1128.6000001430511,0,stim2,0,Counter-clockwise,true,"""",0.01,120,"""","""","2021-12-31 03:31:58",67.158.16.226,"Mozilla/5.0 (Windows NT 10.0; Win64; x64) AppleWebKit/537.36 (KHTML, like Gecko) Chrome/96.0.4664.110 Safari/537.36",WebKit,Chrome,96.0.4664.110,Windows,10.0,ac0f2dffeffaa78d35a552e03d03f0a8
16,3,"""",test_procedure,confidence_rating,html-slider-response,142,313308,0.0-11.0-0.1-2.33,3SD15I2WEBVYX2RZ7BNPTJHHA9P63F,A2196WCNDZULFS,3IXQG4FA22ZT50U3ADA9JW2JRNC9B9,AGXI4,AGXI4,3IXQG4FA22ZT50U3ADA9JW2JRNC9B9,3IXQG4FA22ZT50U3ADA9JW2JRNC9B9,338054,338054,3,0.06,"""",2151.199999809265,72,"<div id=""message-div""><p>How confident are you that your clockwise/counter-clockwise response just now was accurate? Please rate your confidence on the slider bar below.</p></div>","""","""","""",50,"""","""","""",72,"2021-12-31 03:31:58",67.158.16.226,"Mozilla/5.0 (Windows NT 10.0; Win64; x64) AppleWebKit/537.36 (KHTML, like Gecko) Chrome/96.0.4664.110 Safari/537.36",WebKit,Chrome,96.0.4664.110,Windows,10.0,ac0f2dffeffaa78d35a552e03d03f0a8
16,3,"""",test_procedure,fixation,html-keyboard-response,143,313809,0.0-11.0-0.1-0.34,3SD15I2WEBVYX2RZ7BNPTJHHA9P63F,A2196WCNDZULFS,3IXQG4FA22ZT50U3ADA9JW2JRNC9B9,AGXI4,AGXI4,3IXQG4FA22ZT50U3ADA9JW2JRNC9B9,3IXQG4FA22ZT50U3ADA9JW2JRNC9B9,338054,338054,3,0.06,"""",null,null,"<div class = fixationbox><div class = fixation>+</div></div>","""","""","""","""","""","""","""","""","2021-12-31 03:31:58",67.158.16.226,"Mozilla/5.0 (Windows NT 10.0; Win64; x64) AppleWebKit/537.36 (KHTML, like Gecko) Chrome/96.0.4664.110 Safari/537.36",WebKit,Chrome,96.0.4664.110,Windows,10.0,ac0f2dffeffaa78d35a552e03d03f0a8
16,3,"""",test_procedure,stim_test,canvas-button-response,144,315612,0.0-11.0-0.1-1.34,3SD15I2WEBVYX2RZ7BNPTJHHA9P63F,A2196WCNDZULFS,3IXQG4FA22ZT50U3ADA9JW2JRNC9B9,AGXI4,AGXI4,3IXQG4FA22ZT50U3ADA9JW2JRNC9B9,3IXQG4FA22ZT50U3ADA9JW2JRNC9B9,338054,338054,3,0.06,"""",1744.7000000476837,1,stim1,1,Clockwise,true,"""",0.01,60,"""","""","2021-12-31 03:31:58",67.158.16.226,"Mozilla/5.0 (Windows NT 10.0; Win64; x64) AppleWebKit/537.36 (KHTML, like Gecko) Chrome/96.0.4664.110 Safari/537.36",WebKit,Chrome,96.0.4664.110,Windows,10.0,ac0f2dffeffaa78d35a552e03d03f0a8
16,3,"""",test_procedure,confidence_rating,html-slider-response,145,317587,0.0-11.0-0.1-2.34,3SD15I2WEBVYX2RZ7BNPTJHHA9P63F,A2196WCNDZULFS,3IXQG4FA22ZT50U3ADA9JW2JRNC9B9,AGXI4,AGXI4,3IXQG4FA22ZT50U3ADA9JW2JRNC9B9,3IXQG4FA22ZT50U3ADA9JW2JRNC9B9,338054,338054,3,0.06,"""",1972.0999999046326,12,"<div id=""message-div""><p>How confident are you that your clockwise/counter-clockwise response just now was accurate? Please rate your confidence on the slider bar below.</p></div>","""","""","""",50,"""","""","""",12,"2021-12-31 03:31:58",67.158.16.226,"Mozilla/5.0 (Windows NT 10.0; Win64; x64) AppleWebKit/537.36 (KHTML, like Gecko) Chrome/96.0.4664.110 Safari/537.36",WebKit,Chrome,96.0.4664.110,Windows,10.0,ac0f2dffeffaa78d35a552e03d03f0a8
16,3,"""",test_procedure,fixation,html-keyboard-response,146,318089,0.0-11.0-0.1-0.35,3SD15I2WEBVYX2RZ7BNPTJHHA9P63F,A2196WCNDZULFS,3IXQG4FA22ZT50U3ADA9JW2JRNC9B9,AGXI4,AGXI4,3IXQG4FA22ZT50U3ADA9JW2JRNC9B9,3IXQG4FA22ZT50U3ADA9JW2JRNC9B9,338054,338054,3,0.06,"""",null,null,"<div class = fixationbox><div class = fixation>+</div></div>","""","""","""","""","""","""","""","""","2021-12-31 03:31:58",67.158.16.226,"Mozilla/5.0 (Windows NT 10.0; Win64; x64) AppleWebKit/537.36 (KHTML, like Gecko) Chrome/96.0.4664.110 Safari/537.36",WebKit,Chrome,96.0.4664.110,Windows,10.0,ac0f2dffeffaa78d35a552e03d03f0a8
16,3,"""",test_procedure,stim_test,canvas-button-response,147,319156,0.0-11.0-0.1-1.35,3SD15I2WEBVYX2RZ7BNPTJHHA9P63F,A2196WCNDZULFS,3IXQG4FA22ZT50U3ADA9JW2JRNC9B9,AGXI4,AGXI4,3IXQG4FA22ZT50U3ADA9JW2JRNC9B9,3IXQG4FA22ZT50U3ADA9JW2JRNC9B9,338054,338054,3,0.06,"""",1010.1000001430511,1,catchStim1,1,Clockwise,true,"""",0.01,60,0.6,"""","2021-12-31 03:31:58",67.158.16.226,"Mozilla/5.0 (Windows NT 10.0; Win64; x64) AppleWebKit/537.36 (KHTML, like Gecko) Chrome/96.0.4664.110 Safari/537.36",WebKit,Chrome,96.0.4664.110,Windows,10.0,ac0f2dffeffaa78d35a552e03d03f0a8
16,3,"""",test_procedure,confidence_rating,html-slider-response,148,321244,0.0-11.0-0.1-2.35,3SD15I2WEBVYX2RZ7BNPTJHHA9P63F,A2196WCNDZULFS,3IXQG4FA22ZT50U3ADA9JW2JRNC9B9,AGXI4,AGXI4,3IXQG4FA22ZT50U3ADA9JW2JRNC9B9,3IXQG4FA22ZT50U3ADA9JW2JRNC9B9,338054,338054,3,0.06,"""",2087,100,"<div id=""message-div""><p>How confident are you that your clockwise/counter-clockwise response just now was accurate? Please rate your confidence on the slider bar below.</p></div>","""","""","""",50,"""","""","""",100,"2021-12-31 03:31:58",67.158.16.226,"Mozilla/5.0 (Windows NT 10.0; Win64; x64) AppleWebKit/537.36 (KHTML, like Gecko) Chrome/96.0.4664.110 Safari/537.36",WebKit,Chrome,96.0.4664.110,Windows,10.0,ac0f2dffeffaa78d35a552e03d03f0a8
16,3,"""",test_procedure,fixation,html-keyboard-response,149,321748,0.0-11.0-0.1-0.36,3SD15I2WEBVYX2RZ7BNPTJHHA9P63F,A2196WCNDZULFS,3IXQG4FA22ZT50U3ADA9JW2JRNC9B9,AGXI4,AGXI4,3IXQG4FA22ZT50U3ADA9JW2JRNC9B9,3IXQG4FA22ZT50U3ADA9JW2JRNC9B9,338054,338054,3,0.06,"""",null,null,"<div class = fixationbox><div class = fixation>+</div></div>","""","""","""","""","""","""","""","""","2021-12-31 03:31:58",67.158.16.226,"Mozilla/5.0 (Windows NT 10.0; Win64; x64) AppleWebKit/537.36 (KHTML, like Gecko) Chrome/96.0.4664.110 Safari/537.36",WebKit,Chrome,96.0.4664.110,Windows,10.0,ac0f2dffeffaa78d35a552e03d03f0a8
16,3,"""",test_procedure,stim_test,canvas-button-response,150,322844,0.0-11.0-0.1-1.36,3SD15I2WEBVYX2RZ7BNPTJHHA9P63F,A2196WCNDZULFS,3IXQG4FA22ZT50U3ADA9JW2JRNC9B9,AGXI4,AGXI4,3IXQG4FA22ZT50U3ADA9JW2JRNC9B9,3IXQG4FA22ZT50U3ADA9JW2JRNC9B9,338054,338054,3,0.06,"""",1032.7999999523163,1,stim3,1,Clockwise,true,"""",0.3,60,"""","""","2021-12-31 03:31:58",67.158.16.226,"Mozilla/5.0 (Windows NT 10.0; Win64; x64) AppleWebKit/537.36 (KHTML, like Gecko) Chrome/96.0.4664.110 Safari/537.36",WebKit,Chrome,96.0.4664.110,Windows,10.0,ac0f2dffeffaa78d35a552e03d03f0a8
16,3,"""",test_procedure,confidence_rating,html-slider-response,151,324659,0.0-11.0-0.1-2.36,3SD15I2WEBVYX2RZ7BNPTJHHA9P63F,A2196WCNDZULFS,3IXQG4FA22ZT50U3ADA9JW2JRNC9B9,AGXI4,AGXI4,3IXQG4FA22ZT50U3ADA9JW2JRNC9B9,3IXQG4FA22ZT50U3ADA9JW2JRNC9B9,338054,338054,3,0.06,"""",1815,87,"<div id=""message-div""><p>How confident are you that your clockwise/counter-clockwise response just now was accurate? Please rate your confidence on the slider bar below.</p></div>","""","""","""",50,"""","""","""",87,"2021-12-31 03:31:58",67.158.16.226,"Mozilla/5.0 (Windows NT 10.0; Win64; x64) AppleWebKit/537.36 (KHTML, like Gecko) Chrome/96.0.4664.110 Safari/537.36",WebKit,Chrome,96.0.4664.110,Windows,10.0,ac0f2dffeffaa78d35a552e03d03f0a8
16,3,"""",test_procedure,fixation,html-keyboard-response,152,325161,0.0-11.0-0.1-0.37,3SD15I2WEBVYX2RZ7BNPTJHHA9P63F,A2196WCNDZULFS,3IXQG4FA22ZT50U3ADA9JW2JRNC9B9,AGXI4,AGXI4,3IXQG4FA22ZT50U3ADA9JW2JRNC9B9,3IXQG4FA22ZT50U3ADA9JW2JRNC9B9,338054,338054,3,0.06,"""",null,null,"<div class = fixationbox><div class = fixation>+</div></div>","""","""","""","""","""","""","""","""","2021-12-31 03:31:58",67.158.16.226,"Mozilla/5.0 (Windows NT 10.0; Win64; x64) AppleWebKit/537.36 (KHTML, like Gecko) Chrome/96.0.4664.110 Safari/537.36",WebKit,Chrome,96.0.4664.110,Windows,10.0,ac0f2dffeffaa78d35a552e03d03f0a8
16,3,"""",test_procedure,stim_test,canvas-button-response,153,326907,0.0-11.0-0.1-1.37,3SD15I2WEBVYX2RZ7BNPTJHHA9P63F,A2196WCNDZULFS,3IXQG4FA22ZT50U3ADA9JW2JRNC9B9,AGXI4,AGXI4,3IXQG4FA22ZT50U3ADA9JW2JRNC9B9,3IXQG4FA22ZT50U3ADA9JW2JRNC9B9,338054,338054,3,0.06,"""",1690.7000000476837,0,stim2,0,Counter-clockwise,true,"""",0.01,120,"""","""","2021-12-31 03:31:58",67.158.16.226,"Mozilla/5.0 (Windows NT 10.0; Win64; x64) AppleWebKit/537.36 (KHTML, like Gecko) Chrome/96.0.4664.110 Safari/537.36",WebKit,Chrome,96.0.4664.110,Windows,10.0,ac0f2dffeffaa78d35a552e03d03f0a8
16,3,"""",test_procedure,confidence_rating,html-slider-response,154,329284,0.0-11.0-0.1-2.37,3SD15I2WEBVYX2RZ7BNPTJHHA9P63F,A2196WCNDZULFS,3IXQG4FA22ZT50U3ADA9JW2JRNC9B9,AGXI4,AGXI4,3IXQG4FA22ZT50U3ADA9JW2JRNC9B9,3IXQG4FA22ZT50U3ADA9JW2JRNC9B9,338054,338054,3,0.06,"""",2375.2999999523163,62,"<div id=""message-div""><p>How confident are you that your clockwise/counter-clockwise response just now was accurate? Please rate your confidence on the slider bar below.</p></div>","""","""","""",50,"""","""","""",62,"2021-12-31 03:31:58",67.158.16.226,"Mozilla/5.0 (Windows NT 10.0; Win64; x64) AppleWebKit/537.36 (KHTML, like Gecko) Chrome/96.0.4664.110 Safari/537.36",WebKit,Chrome,96.0.4664.110,Windows,10.0,ac0f2dffeffaa78d35a552e03d03f0a8
16,3,"""",test_procedure,fixation,html-keyboard-response,155,329787,0.0-11.0-0.1-0.38,3SD15I2WEBVYX2RZ7BNPTJHHA9P63F,A2196WCNDZULFS,3IXQG4FA22ZT50U3ADA9JW2JRNC9B9,AGXI4,AGXI4,3IXQG4FA22ZT50U3ADA9JW2JRNC9B9,3IXQG4FA22ZT50U3ADA9JW2JRNC9B9,338054,338054,3,0.06,"""",null,null,"<div class = fixationbox><div class = fixation>+</div></div>","""","""","""","""","""","""","""","""","2021-12-31 03:31:58",67.158.16.226,"Mozilla/5.0 (Windows NT 10.0; Win64; x64) AppleWebKit/537.36 (KHTML, like Gecko) Chrome/96.0.4664.110 Safari/537.36",WebKit,Chrome,96.0.4664.110,Windows,10.0,ac0f2dffeffaa78d35a552e03d03f0a8
16,3,"""",test_procedure,stim_test,canvas-button-response,156,331036,0.0-11.0-0.1-1.38,3SD15I2WEBVYX2RZ7BNPTJHHA9P63F,A2196WCNDZULFS,3IXQG4FA22ZT50U3ADA9JW2JRNC9B9,AGXI4,AGXI4,3IXQG4FA22ZT50U3ADA9JW2JRNC9B9,3IXQG4FA22ZT50U3ADA9JW2JRNC9B9,338054,338054,3,0.06,"""",1187,0,stim2,0,Counter-clockwise,true,"""",0.01,120,"""","""","2021-12-31 03:31:58",67.158.16.226,"Mozilla/5.0 (Windows NT 10.0; Win64; x64) AppleWebKit/537.36 (KHTML, like Gecko) Chrome/96.0.4664.110 Safari/537.36",WebKit,Chrome,96.0.4664.110,Windows,10.0,ac0f2dffeffaa78d35a552e03d03f0a8
