run_id,condition,success,exp_stage,trial_id,trial_type,trial_index,time_elapsed,internal_node_id,hitId,workerId,assignmentId,a,tp_a,b,tp_b,c,tp_c,conditionmyown,cen_signal_contrast_stim,view_history,rt,response,stimulus,correct_response,correct_response_in_clockwise_or_counterclockwise,correct,slider_start,ctx_signal_contrast,cen_angle_in_degree,cen_signal_contrast_catchStim,confidence,recorded_at,ip,user_agent,device,browser,browser_version,platform,platform_version,source_code_version
21,2,true,pre-exp,fullscreen_starts,fullscreen,0,4270,0.0-0.0,3PKVGQTFJQLSZOM7OKJDU84QFXXYRA,AQMLJYUQCSG22,3LYA37P8IZODMWDUEA1Y95GZ2HOBK5,83YL4,83YL4,3LYA37P8IZODMWDUEA1Y95GZ2HOBK5,3LYA37P8IZODMWDUEA1Y95GZ2HOBK5,338054,338054,2,0.04,"""","""","""","""","""","""","""","""","""","""","""","""","2021-12-31 03:55:25",76.168.193.216,"Mozilla/5.0 (Windows NT 10.0; Win64; x64) AppleWebKit/537.36 (KHTML, like Gecko) Chrome/96.0.4664.110 Safari/537.36",WebKit,Chrome,96.0.4664.110,Windows,10.0,ac0f2dffeffaa78d35a552e03d03f0a8
21,2,"""",pre-exp,instructionspage1,instructions,1,6216,0.0-1.0-0.0,3PKVGQTFJQLSZOM7OKJDU84QFXXYRA,AQMLJYUQCSG22,3LYA37P8IZODMWDUEA1Y95GZ2HOBK5,83YL4,83YL4,3LYA37P8IZODMWDUEA1Y95GZ2HOBK5,3LYA37P8IZODMWDUEA1Y95GZ2HOBK5,338054,338054,2,0.04,"[{""page_index"":0,""viewing_time"":1943.2999999523163}]",1943.5,"""","""","""","""","""","""","""","""","""","""","2021-12-31 03:55:25",76.168.193.216,"Mozilla/5.0 (Windows NT 10.0; Win64; x64) AppleWebKit/537.36 (KHTML, like Gecko) Chrome/96.0.4664.110 Safari/537.36",WebKit,Chrome,96.0.4664.110,Windows,10.0,ac0f2dffeffaa78d35a552e03d03f0a8
21,2,"""",pre-exp,instructions_block2,canvas-button-response,2,26076,0.0-2.0-0.0-0.0,3PKVGQTFJQLSZOM7OKJDU84QFXXYRA,AQMLJYUQCSG22,3LYA37P8IZODMWDUEA1Y95GZ2HOBK5,83YL4,83YL4,3LYA37P8IZODMWDUEA1Y95GZ2HOBK5,3LYA37P8IZODMWDUEA1Y95GZ2HOBK5,338054,338054,2,0.04,"""",19773.5,1,instructionStim1,1,Clockwise,true,"""","""","""","""","""","2021-12-31 03:55:25",76.168.193.216,"Mozilla/5.0 (Windows NT 10.0; Win64; x64) AppleWebKit/537.36 (KHTML, like Gecko) Chrome/96.0.4664.110 Safari/537.36",WebKit,Chrome,96.0.4664.110,Windows,10.0,ac0f2dffeffaa78d35a552e03d03f0a8
21,2,"""",pre-exp,instructions_block3,canvas-button-response,3,35080,0.0-3.0-0.0-0.0,3PKVGQTFJQLSZOM7OKJDU84QFXXYRA,AQMLJYUQCSG22,3LYA37P8IZODMWDUEA1Y95GZ2HOBK5,83YL4,83YL4,3LYA37P8IZODMWDUEA1Y95GZ2HOBK5,3LYA37P8IZODMWDUEA1Y95GZ2HOBK5,338054,338054,2,0.04,"""",8934.700000047684,0,instructionStim2,0,Counter-clockwise,true,"""","""","""","""","""","2021-12-31 03:55:25",76.168.193.216,"Mozilla/5.0 (Windows NT 10.0; Win64; x64) AppleWebKit/537.36 (KHTML, like Gecko) Chrome/96.0.4664.110 Safari/537.36",WebKit,Chrome,96.0.4664.110,Windows,10.0,ac0f2dffeffaa78d35a552e03d03f0a8
21,2,"""",pre-exp,instructions_block4,html-slider-response,4,52740,0.0-4.0,3PKVGQTFJQLSZOM7OKJDU84QFXXYRA,AQMLJYUQCSG22,3LYA37P8IZODMWDUEA1Y95GZ2HOBK5,83YL4,83YL4,3LYA37P8IZODMWDUEA1Y95GZ2HOBK5,3LYA37P8IZODMWDUEA1Y95GZ2HOBK5,338054,338054,2,0.04,"""",17658.400000095367,0,"<div id=""message-div""><p>After you have made your clockwise/counter-clockwise choice, <br>you will be asked to rate how confident you are that you were correct in your clockwise/counter-clockwise choice using a slide bar.<br>Please try to use the entire range of the slider bar.<br>For example, feel free to move the slider to the leftmost location if you are extremely uncertain about your choice, and the rightmost location if you are extremely certain.</p></div>","""","""","""",50,"""","""","""","""","2021-12-31 03:55:25",76.168.193.216,"Mozilla/5.0 (Windows NT 10.0; Win64; x64) AppleWebKit/537.36 (KHTML, like Gecko) Chrome/96.0.4664.110 Safari/537.36",WebKit,Chrome,96.0.4664.110,Windows,10.0,ac0f2dffeffaa78d35a552e03d03f0a8
21,2,"""",pre-exp,instructionspage5,instructions,5,55128,0.0-5.0-0.0,3PKVGQTFJQLSZOM7OKJDU84QFXXYRA,AQMLJYUQCSG22,3LYA37P8IZODMWDUEA1Y95GZ2HOBK5,83YL4,83YL4,3LYA37P8IZODMWDUEA1Y95GZ2HOBK5,3LYA37P8IZODMWDUEA1Y95GZ2HOBK5,338054,338054,2,0.04,"[{""page_index"":0,""viewing_time"":2386.300000190735}]",2386.5,"""","""","""","""","""","""","""","""","""","""","2021-12-31 03:55:25",76.168.193.216,"Mozilla/5.0 (Windows NT 10.0; Win64; x64) AppleWebKit/537.36 (KHTML, like Gecko) Chrome/96.0.4664.110 Safari/537.36",WebKit,Chrome,96.0.4664.110,Windows,10.0,ac0f2dffeffaa78d35a552e03d03f0a8
21,2,"""",pre-exp,repeat_instructions_conditionalpage5,html-button-response,6,56858,0.0-5.0-1.0-0.0,3PKVGQTFJQLSZOM7OKJDU84QFXXYRA,AQMLJYUQCSG22,3LYA37P8IZODMWDUEA1Y95GZ2HOBK5,83YL4,83YL4,3LYA37P8IZODMWDUEA1Y95GZ2HOBK5,3LYA37P8IZODMWDUEA1Y95GZ2HOBK5,338054,338054,2,0.04,"""",1729.2000000476837,0,"<div id=""message-div""><p>Please read this carefully. The instructions will be shown again now.</p><p>Click the ""Continue"" button to continue.</p></div>","""","""","""","""","""","""","""","""","2021-12-31 03:55:25",76.168.193.216,"Mozilla/5.0 (Windows NT 10.0; Win64; x64) AppleWebKit/537.36 (KHTML, like Gecko) Chrome/96.0.4664.110 Safari/537.36",WebKit,Chrome,96.0.4664.110,Windows,10.0,ac0f2dffeffaa78d35a552e03d03f0a8
21,2,"""",pre-exp,instructionspage5,instructions,7,60642,0.0-5.1-0.1,3PKVGQTFJQLSZOM7OKJDU84QFXXYRA,AQMLJYUQCSG22,3LYA37P8IZODMWDUEA1Y95GZ2HOBK5,83YL4,83YL4,3LYA37P8IZODMWDUEA1Y95GZ2HOBK5,3LYA37P8IZODMWDUEA1Y95GZ2HOBK5,338054,338054,2,0.04,"[{""page_index"":0,""viewing_time"":3782.899999856949}]",3783.0999999046326,"""","""","""","""","""","""","""","""","""","""","2021-12-31 03:55:25",76.168.193.216,"Mozilla/5.0 (Windows NT 10.0; Win64; x64) AppleWebKit/537.36 (KHTML, like Gecko) Chrome/96.0.4664.110 Safari/537.36",WebKit,Chrome,96.0.4664.110,Windows,10.0,ac0f2dffeffaa78d35a552e03d03f0a8
21,2,"""",pre-exp,instructionspage6,instructions,8,62592,0.0-6.0-0.0,3PKVGQTFJQLSZOM7OKJDU84QFXXYRA,AQMLJYUQCSG22,3LYA37P8IZODMWDUEA1Y95GZ2HOBK5,83YL4,83YL4,3LYA37P8IZODMWDUEA1Y95GZ2HOBK5,3LYA37P8IZODMWDUEA1Y95GZ2HOBK5,338054,338054,2,0.04,"[{""page_index"":0,""viewing_time"":1948.7999999523163}]",1948.9000000953674,"""","""","""","""","""","""","""","""","""","""","2021-12-31 03:55:25",76.168.193.216,"Mozilla/5.0 (Windows NT 10.0; Win64; x64) AppleWebKit/537.36 (KHTML, like Gecko) Chrome/96.0.4664.110 Safari/537.36",WebKit,Chrome,96.0.4664.110,Windows,10.0,ac0f2dffeffaa78d35a552e03d03f0a8
21,2,"""",pre-exp,instructionspage7,instructions,9,66670,0.0-7.0-0.0,3PKVGQTFJQLSZOM7OKJDU84QFXXYRA,AQMLJYUQCSG22,3LYA37P8IZODMWDUEA1Y95GZ2HOBK5,83YL4,83YL4,3LYA37P8IZODMWDUEA1Y95GZ2HOBK5,3LYA37P8IZODMWDUEA1Y95GZ2HOBK5,338054,338054,2,0.04,"[{""page_index"":0,""viewing_time"":4077.399999856949}]",4077.5999999046326,"""","""","""","""","""","""","""","""","""","""","2021-12-31 03:55:25",76.168.193.216,"Mozilla/5.0 (Windows NT 10.0; Win64; x64) AppleWebKit/537.36 (KHTML, like Gecko) Chrome/96.0.4664.110 Safari/537.36",WebKit,Chrome,96.0.4664.110,Windows,10.0,ac0f2dffeffaa78d35a552e03d03f0a8
21,2,"""",pre-exp,instructionspage8,instructions,10,67717,0.0-8.0-0.0,3PKVGQTFJQLSZOM7OKJDU84QFXXYRA,AQMLJYUQCSG22,3LYA37P8IZODMWDUEA1Y95GZ2HOBK5,83YL4,83YL4,3LYA37P8IZODMWDUEA1Y95GZ2HOBK5,3LYA37P8IZODMWDUEA1Y95GZ2HOBK5,338054,338054,2,0.04,"[{""page_index"":0,""viewing_time"":1046.5}]",1046.6000001430511,"""","""","""","""","""","""","""","""","""","""","2021-12-31 03:55:25",76.168.193.216,"Mozilla/5.0 (Windows NT 10.0; Win64; x64) AppleWebKit/537.36 (KHTML, like Gecko) Chrome/96.0.4664.110 Safari/537.36",WebKit,Chrome,96.0.4664.110,Windows,10.0,ac0f2dffeffaa78d35a552e03d03f0a8
21,2,"""",practice_procedure,fixation,html-keyboard-response,11,68220,0.0-9.0-0.0-0.0,3PKVGQTFJQLSZOM7OKJDU84QFXXYRA,AQMLJYUQCSG22,3LYA37P8IZODMWDUEA1Y95GZ2HOBK5,83YL4,83YL4,3LYA37P8IZODMWDUEA1Y95GZ2HOBK5,3LYA37P8IZODMWDUEA1Y95GZ2HOBK5,338054,338054,2,0.04,"""",null,null,"<div class = fixationbox><div class = fixation>+</div></div>","""","""","""","""","""","""","""","""","2021-12-31 03:55:25",76.168.193.216,"Mozilla/5.0 (Windows NT 10.0; Win64; x64) AppleWebKit/537.36 (KHTML, like Gecko) Chrome/96.0.4664.110 Safari/537.36",WebKit,Chrome,96.0.4664.110,Windows,10.0,ac0f2dffeffaa78d35a552e03d03f0a8
21,2,"""",practice_procedure,stim_practice,canvas-button-response,12,70580,0.0-9.0-0.0-1.0,3PKVGQTFJQLSZOM7OKJDU84QFXXYRA,AQMLJYUQCSG22,3LYA37P8IZODMWDUEA1Y95GZ2HOBK5,83YL4,83YL4,3LYA37P8IZODMWDUEA1Y95GZ2HOBK5,3LYA37P8IZODMWDUEA1Y95GZ2HOBK5,338054,338054,2,0.04,"""",2309.5999999046326,0,practiceStim4,0,Counter-clockwise,true,"""",0.3,120,0.99,"""","2021-12-31 03:55:25",76.168.193.216,"Mozilla/5.0 (Windows NT 10.0; Win64; x64) AppleWebKit/537.36 (KHTML, like Gecko) Chrome/96.0.4664.110 Safari/537.36",WebKit,Chrome,96.0.4664.110,Windows,10.0,ac0f2dffeffaa78d35a552e03d03f0a8
21,2,"""",practice_procedure,confidence_rating,html-slider-response,13,73072,0.0-9.0-0.0-2.0,3PKVGQTFJQLSZOM7OKJDU84QFXXYRA,AQMLJYUQCSG22,3LYA37P8IZODMWDUEA1Y95GZ2HOBK5,83YL4,83YL4,3LYA37P8IZODMWDUEA1Y95GZ2HOBK5,3LYA37P8IZODMWDUEA1Y95GZ2HOBK5,338054,338054,2,0.04,"""",2491.2000000476837,84,"<div id=""message-div""><p>How confident are you that your clockwise/counter-clockwise response just now was accurate? Please rate your confidence on the slider bar below.</p></div>","""","""","""",50,"""","""","""",84,"2021-12-31 03:55:25",76.168.193.216,"Mozilla/5.0 (Windows NT 10.0; Win64; x64) AppleWebKit/537.36 (KHTML, like Gecko) Chrome/96.0.4664.110 Safari/537.36",WebKit,Chrome,96.0.4664.110,Windows,10.0,ac0f2dffeffaa78d35a552e03d03f0a8
21,2,"""",practice_procedure,fixation,html-keyboard-response,14,73575,0.0-9.0-0.0-0.1,3PKVGQTFJQLSZOM7OKJDU84QFXXYRA,AQMLJYUQCSG22,3LYA37P8IZODMWDUEA1Y95GZ2HOBK5,83YL4,83YL4,3LYA37P8IZODMWDUEA1Y95GZ2HOBK5,3LYA37P8IZODMWDUEA1Y95GZ2HOBK5,338054,338054,2,0.04,"""",null,null,"<div class = fixationbox><div class = fixation>+</div></div>","""","""","""","""","""","""","""","""","2021-12-31 03:55:25",76.168.193.216,"Mozilla/5.0 (Windows NT 10.0; Win64; x64) AppleWebKit/537.36 (KHTML, like Gecko) Chrome/96.0.4664.110 Safari/537.36",WebKit,Chrome,96.0.4664.110,Windows,10.0,ac0f2dffeffaa78d35a552e03d03f0a8
21,2,"""",practice_procedure,stim_practice,canvas-button-response,15,75058,0.0-9.0-0.0-1.1,3PKVGQTFJQLSZOM7OKJDU84QFXXYRA,AQMLJYUQCSG22,3LYA37P8IZODMWDUEA1Y95GZ2HOBK5,83YL4,83YL4,3LYA37P8IZODMWDUEA1Y95GZ2HOBK5,3LYA37P8IZODMWDUEA1Y95GZ2HOBK5,338054,338054,2,0.04,"""",1443.7999999523163,1,practiceStim1,1,Clockwise,true,"""",0.01,60,0.99,"""","2021-12-31 03:55:25",76.168.193.216,"Mozilla/5.0 (Windows NT 10.0; Win64; x64) AppleWebKit/537.36 (KHTML, like Gecko) Chrome/96.0.4664.110 Safari/537.36",WebKit,Chrome,96.0.4664.110,Windows,10.0,ac0f2dffeffaa78d35a552e03d03f0a8
21,2,"""",practice_procedure,confidence_rating,html-slider-response,16,77000,0.0-9.0-0.0-2.1,3PKVGQTFJQLSZOM7OKJDU84QFXXYRA,AQMLJYUQCSG22,3LYA37P8IZODMWDUEA1Y95GZ2HOBK5,83YL4,83YL4,3LYA37P8IZODMWDUEA1Y95GZ2HOBK5,3LYA37P8IZODMWDUEA1Y95GZ2HOBK5,338054,338054,2,0.04,"""",1941.2000000476837,100,"<div id=""message-div""><p>How confident are you that your clockwise/counter-clockwise response just now was accurate? Please rate your confidence on the slider bar below.</p></div>","""","""","""",50,"""","""","""",100,"2021-12-31 03:55:25",76.168.193.216,"Mozilla/5.0 (Windows NT 10.0; Win64; x64) AppleWebKit/537.36 (KHTML, like Gecko) Chrome/96.0.4664.110 Safari/537.36",WebKit,Chrome,96.0.4664.110,Windows,10.0,ac0f2dffeffaa78d35a552e03d03f0a8
21,2,"""",practice_procedure,fixation,html-keyboard-response,17,77501,0.0-9.0-0.0-0.2,3PKVGQTFJQLSZOM7OKJDU84QFXXYRA,AQMLJYUQCSG22,3LYA37P8IZODMWDUEA1Y95GZ2HOBK5,83YL4,83YL4,3LYA37P8IZODMWDUEA1Y95GZ2HOBK5,3LYA37P8IZODMWDUEA1Y95GZ2HOBK5,338054,338054,2,0.04,"""",null,null,"<div class = fixationbox><div class = fixation>+</div></div>","""","""","""","""","""","""","""","""","2021-12-31 03:55:25",76.168.193.216,"Mozilla/5.0 (Windows NT 10.0; Win64; x64) AppleWebKit/537.36 (KHTML, like Gecko) Chrome/96.0.4664.110 Safari/537.36",WebKit,Chrome,96.0.4664.110,Windows,10.0,ac0f2dffeffaa78d35a552e03d03f0a8
21,2,"""",practice_procedure,stim_practice,canvas-button-response,18,79032,0.0-9.0-0.0-1.2,3PKVGQTFJQLSZOM7OKJDU84QFXXYRA,AQMLJYUQCSG22,3LYA37P8IZODMWDUEA1Y95GZ2HOBK5,83YL4,83YL4,3LYA37P8IZODMWDUEA1Y95GZ2HOBK5,3LYA37P8IZODMWDUEA1Y95GZ2HOBK5,338054,338054,2,0.04,"""",1497.5999999046326,0,practiceStim2,0,Counter-clockwise,true,"""",0.01,120,0.99,"""","2021-12-31 03:55:25",76.168.193.216,"Mozilla/5.0 (Windows NT 10.0; Win64; x64) AppleWebKit/537.36 (KHTML, like Gecko) Chrome/96.0.4664.110 Safari/537.36",WebKit,Chrome,96.0.4664.110,Windows,10.0,ac0f2dffeffaa78d35a552e03d03f0a8
21,2,"""",practice_procedure,confidence_rating,html-slider-response,19,81457,0.0-9.0-0.0-2.2,3PKVGQTFJQLSZOM7OKJDU84QFXXYRA,AQMLJYUQCSG22,3LYA37P8IZODMWDUEA1Y95GZ2HOBK5,83YL4,83YL4,3LYA37P8IZODMWDUEA1Y95GZ2HOBK5,3LYA37P8IZODMWDUEA1Y95GZ2HOBK5,338054,338054,2,0.04,"""",2424.100000143051,88,"<div id=""message-div""><p>How confident are you that your clockwise/counter-clockwise response just now was accurate? Please rate your confidence on the slider bar below.</p></div>","""","""","""",50,"""","""","""",88,"2021-12-31 03:55:25",76.168.193.216,"Mozilla/5.0 (Windows NT 10.0; Win64; x64) AppleWebKit/537.36 (KHTML, like Gecko) Chrome/96.0.4664.110 Safari/537.36",WebKit,Chrome,96.0.4664.110,Windows,10.0,ac0f2dffeffaa78d35a552e03d03f0a8
21,2,"""",practice_procedure,fixation,html-keyboard-response,20,81958,0.0-9.0-0.0-0.3,3PKVGQTFJQLSZOM7OKJDU84QFXXYRA,AQMLJYUQCSG22,3LYA37P8IZODMWDUEA1Y95GZ2HOBK5,83YL4,83YL4,3LYA37P8IZODMWDUEA1Y95GZ2HOBK5,3LYA37P8IZODMWDUEA1Y95GZ2HOBK5,338054,338054,2,0.04,"""",null,null,"<div class = fixationbox><div class = fixation>+</div></div>","""","""","""","""","""","""","""","""","2021-12-31 03:55:25",76.168.193.216,"Mozilla/5.0 (Windows NT 10.0; Win64; x64) AppleWebKit/537.36 (KHTML, like Gecko) Chrome/96.0.4664.110 Safari/537.36",WebKit,Chrome,96.0.4664.110,Windows,10.0,ac0f2dffeffaa78d35a552e03d03f0a8
21,2,"""",practice_procedure,stim_practice,canvas-button-response,21,83518,0.0-9.0-0.0-1.3,3PKVGQTFJQLSZOM7OKJDU84QFXXYRA,AQMLJYUQCSG22,3LYA37P8IZODMWDUEA1Y95GZ2HOBK5,83YL4,83YL4,3LYA37P8IZODMWDUEA1Y95GZ2HOBK5,3LYA37P8IZODMWDUEA1Y95GZ2HOBK5,338054,338054,2,0.04,"""",1526,0,practiceStim4,0,Counter-clockwise,true,"""",0.3,120,0.99,"""","2021-12-31 03:55:25",76.168.193.216,"Mozilla/5.0 (Windows NT 10.0; Win64; x64) AppleWebKit/537.36 (KHTML, like Gecko) Chrome/96.0.4664.110 Safari/537.36",WebKit,Chrome,96.0.4664.110,Windows,10.0,ac0f2dffeffaa78d35a552e03d03f0a8
21,2,"""",practice_procedure,confidence_rating,html-slider-response,22,84992,0.0-9.0-0.0-2.3,3PKVGQTFJQLSZOM7OKJDU84QFXXYRA,AQMLJYUQCSG22,3LYA37P8IZODMWDUEA1Y95GZ2HOBK5,83YL4,83YL4,3LYA37P8IZODMWDUEA1Y95GZ2HOBK5,3LYA37P8IZODMWDUEA1Y95GZ2HOBK5,338054,338054,2,0.04,"""",1473.0999999046326,91,"<div id=""message-div""><p>How confident are you that your clockwise/counter-clockwise response just now was accurate? Please rate your confidence on the slider bar below.</p></div>","""","""","""",50,"""","""","""",91,"2021-12-31 03:55:25",76.168.193.216,"Mozilla/5.0 (Windows NT 10.0; Win64; x64) AppleWebKit/537.36 (KHTML, like Gecko) Chrome/96.0.4664.110 Safari/537.36",WebKit,Chrome,96.0.4664.110,Windows,10.0,ac0f2dffeffaa78d35a552e03d03f0a8
21,2,"""",practice_procedure,fixation,html-keyboard-response,23,85493,0.0-9.0-0.0-0.4,3PKVGQTFJQLSZOM7OKJDU84QFXXYRA,AQMLJYUQCSG22,3LYA37P8IZODMWDUEA1Y95GZ2HOBK5,83YL4,83YL4,3LYA37P8IZODMWDUEA1Y95GZ2HOBK5,3LYA37P8IZODMWDUEA1Y95GZ2HOBK5,338054,338054,2,0.04,"""",null,null,"<div class = fixationbox><div class = fixation>+</div></div>","""","""","""","""","""","""","""","""","2021-12-31 03:55:25",76.168.193.216,"Mozilla/5.0 (Windows NT 10.0; Win64; x64) AppleWebKit/537.36 (KHTML, like Gecko) Chrome/96.0.4664.110 Safari/537.36",WebKit,Chrome,96.0.4664.110,Windows,10.0,ac0f2dffeffaa78d35a552e03d03f0a8
21,2,"""",practice_procedure,stim_practice,canvas-button-response,24,86938,0.0-9.0-0.0-1.4,3PKVGQTFJQLSZOM7OKJDU84QFXXYRA,AQMLJYUQCSG22,3LYA37P8IZODMWDUEA1Y95GZ2HOBK5,83YL4,83YL4,3LYA37P8IZODMWDUEA1Y95GZ2HOBK5,3LYA37P8IZODMWDUEA1Y95GZ2HOBK5,338054,338054,2,0.04,"""",1410.5,1,practiceStim1,1,Clockwise,true,"""",0.01,60,0.99,"""","2021-12-31 03:55:25",76.168.193.216,"Mozilla/5.0 (Windows NT 10.0; Win64; x64) AppleWebKit/537.36 (KHTML, like Gecko) Chrome/96.0.4664.110 Safari/537.36",WebKit,Chrome,96.0.4664.110,Windows,10.0,ac0f2dffeffaa78d35a552e03d03f0a8
21,2,"""",practice_procedure,confidence_rating,html-slider-response,25,88556,0.0-9.0-0.0-2.4,3PKVGQTFJQLSZOM7OKJDU84QFXXYRA,AQMLJYUQCSG22,3LYA37P8IZODMWDUEA1Y95GZ2HOBK5,83YL4,83YL4,3LYA37P8IZODMWDUEA1Y95GZ2HOBK5,3LYA37P8IZODMWDUEA1Y95GZ2HOBK5,338054,338054,2,0.04,"""",1617.2000000476837,83,"<div id=""message-div""><p>How confident are you that your clockwise/counter-clockwise response just now was accurate? Please rate your confidence on the slider bar below.</p></div>","""","""","""",50,"""","""","""",83,"2021-12-31 03:55:25",76.168.193.216,"Mozilla/5.0 (Windows NT 10.0; Win64; x64) AppleWebKit/537.36 (KHTML, like Gecko) Chrome/96.0.4664.110 Safari/537.36",WebKit,Chrome,96.0.4664.110,Windows,10.0,ac0f2dffeffaa78d35a552e03d03f0a8
21,2,"""",practice_procedure,fixation,html-keyboard-response,26,89058,0.0-9.0-0.0-0.5,3PKVGQTFJQLSZOM7OKJDU84QFXXYRA,AQMLJYUQCSG22,3LYA37P8IZODMWDUEA1Y95GZ2HOBK5,83YL4,83YL4,3LYA37P8IZODMWDUEA1Y95GZ2HOBK5,3LYA37P8IZODMWDUEA1Y95GZ2HOBK5,338054,338054,2,0.04,"""",null,null,"<div class = fixationbox><div class = fixation>+</div></div>","""","""","""","""","""","""","""","""","2021-12-31 03:55:25",76.168.193.216,"Mozilla/5.0 (Windows NT 10.0; Win64; x64) AppleWebKit/537.36 (KHTML, like Gecko) Chrome/96.0.4664.110 Safari/537.36",WebKit,Chrome,96.0.4664.110,Windows,10.0,ac0f2dffeffaa78d35a552e03d03f0a8
21,2,"""",practice_procedure,stim_practice,canvas-button-response,27,90792,0.0-9.0-0.0-1.5,3PKVGQTFJQLSZOM7OKJDU84QFXXYRA,AQMLJYUQCSG22,3LYA37P8IZODMWDUEA1Y95GZ2HOBK5,83YL4,83YL4,3LYA37P8IZODMWDUEA1Y95GZ2HOBK5,3LYA37P8IZODMWDUEA1Y95GZ2HOBK5,338054,338054,2,0.04,"""",1701.2999999523163,0,practiceStim2,0,Counter-clockwise,true,"""",0.01,120,0.99,"""","2021-12-31 03:55:25",76.168.193.216,"Mozilla/5.0 (Windows NT 10.0; Win64; x64) AppleWebKit/537.36 (KHTML, like Gecko) Chrome/96.0.4664.110 Safari/537.36",WebKit,Chrome,96.0.4664.110,Windows,10.0,ac0f2dffeffaa78d35a552e03d03f0a8
21,2,"""",practice_procedure,confidence_rating,html-slider-response,28,92306,0.0-9.0-0.0-2.5,3PKVGQTFJQLSZOM7OKJDU84QFXXYRA,AQMLJYUQCSG22,3LYA37P8IZODMWDUEA1Y95GZ2HOBK5,83YL4,83YL4,3LYA37P8IZODMWDUEA1Y95GZ2HOBK5,3LYA37P8IZODMWDUEA1Y95GZ2HOBK5,338054,338054,2,0.04,"""",1512,78,"<div id=""message-div""><p>How confident are you that your clockwise/counter-clockwise response just now was accurate? Please rate your confidence on the slider bar below.</p></div>","""","""","""",50,"""","""","""",78,"2021-12-31 03:55:25",76.168.193.216,"Mozilla/5.0 (Windows NT 10.0; Win64; x64) AppleWebKit/537.36 (KHTML, like Gecko) Chrome/96.0.4664.110 Safari/537.36",WebKit,Chrome,96.0.4664.110,Windows,10.0,ac0f2dffeffaa78d35a552e03d03f0a8
21,2,"""",practice_procedure,fixation,html-keyboard-response,29,92807,0.0-9.0-0.0-0.6,3PKVGQTFJQLSZOM7OKJDU84QFXXYRA,AQMLJYUQCSG22,3LYA37P8IZODMWDUEA1Y95GZ2HOBK5,83YL4,83YL4,3LYA37P8IZODMWDUEA1Y95GZ2HOBK5,3LYA37P8IZODMWDUEA1Y95GZ2HOBK5,338054,338054,2,0.04,"""",null,null,"<div class = fixationbox><div class = fixation>+</div></div>","""","""","""","""","""","""","""","""","2021-12-31 03:55:25",76.168.193.216,"Mozilla/5.0 (Windows NT 10.0; Win64; x64) AppleWebKit/537.36 (KHTML, like Gecko) Chrome/96.0.4664.110 Safari/537.36",WebKit,Chrome,96.0.4664.110,Windows,10.0,ac0f2dffeffaa78d35a552e03d03f0a8
21,2,"""",practice_procedure,stim_practice,canvas-button-response,30,93996,0.0-9.0-0.0-1.6,3PKVGQTFJQLSZOM7OKJDU84QFXXYRA,AQMLJYUQCSG22,3LYA37P8IZODMWDUEA1Y95GZ2HOBK5,83YL4,83YL4,3LYA37P8IZODMWDUEA1Y95GZ2HOBK5,3LYA37P8IZODMWDUEA1Y95GZ2HOBK5,338054,338054,2,0.04,"""",1154.5999999046326,0,practiceStim4,0,Counter-clockwise,true,"""",0.3,120,0.99,"""","2021-12-31 03:55:25",76.168.193.216,"Mozilla/5.0 (Windows NT 10.0; Win64; x64) AppleWebKit/537.36 (KHTML, like Gecko) Chrome/96.0.4664.110 Safari/537.36",WebKit,Chrome,96.0.4664.110,Windows,10.0,ac0f2dffeffaa78d35a552e03d03f0a8
21,2,"""",practice_procedure,confidence_rating,html-slider-response,31,95645,0.0-9.0-0.0-2.6,3PKVGQTFJQLSZOM7OKJDU84QFXXYRA,AQMLJYUQCSG22,3LYA37P8IZODMWDUEA1Y95GZ2HOBK5,83YL4,83YL4,3LYA37P8IZODMWDUEA1Y95GZ2HOBK5,3LYA37P8IZODMWDUEA1Y95GZ2HOBK5,338054,338054,2,0.04,"""",1649.2000000476837,95,"<div id=""message-div""><p>How confident are you that your clockwise/counter-clockwise response just now was accurate? Please rate your confidence on the slider bar below.</p></div>","""","""","""",50,"""","""","""",95,"2021-12-31 03:55:25",76.168.193.216,"Mozilla/5.0 (Windows NT 10.0; Win64; x64) AppleWebKit/537.36 (KHTML, like Gecko) Chrome/96.0.4664.110 Safari/537.36",WebKit,Chrome,96.0.4664.110,Windows,10.0,ac0f2dffeffaa78d35a552e03d03f0a8
21,2,"""",practice_procedure,fixation,html-keyboard-response,32,96147,0.0-9.0-0.0-0.7,3PKVGQTFJQLSZOM7OKJDU84QFXXYRA,AQMLJYUQCSG22,3LYA37P8IZODMWDUEA1Y95GZ2HOBK5,83YL4,83YL4,3LYA37P8IZODMWDUEA1Y95GZ2HOBK5,3LYA37P8IZODMWDUEA1Y95GZ2HOBK5,338054,338054,2,0.04,"""",null,null,"<div class = fixationbox><div class = fixation>+</div></div>","""","""","""","""","""","""","""","""","2021-12-31 03:55:25",76.168.193.216,"Mozilla/5.0 (Windows NT 10.0; Win64; x64) AppleWebKit/537.36 (KHTML, like Gecko) Chrome/96.0.4664.110 Safari/537.36",WebKit,Chrome,96.0.4664.110,Windows,10.0,ac0f2dffeffaa78d35a552e03d03f0a8
21,2,"""",practice_procedure,stim_practice,canvas-button-response,33,97552,0.0-9.0-0.0-1.7,3PKVGQTFJQLSZOM7OKJDU84QFXXYRA,AQMLJYUQCSG22,3LYA37P8IZODMWDUEA1Y95GZ2HOBK5,83YL4,83YL4,3LYA37P8IZODMWDUEA1Y95GZ2HOBK5,3LYA37P8IZODMWDUEA1Y95GZ2HOBK5,338054,338054,2,0.04,"""",1370.4000000953674,1,practiceStim3,1,Clockwise,true,"""",0.3,60,0.99,"""","2021-12-31 03:55:25",76.168.193.216,"Mozilla/5.0 (Windows NT 10.0; Win64; x64) AppleWebKit/537.36 (KHTML, like Gecko) Chrome/96.0.4664.110 Safari/537.36",WebKit,Chrome,96.0.4664.110,Windows,10.0,ac0f2dffeffaa78d35a552e03d03f0a8
21,2,"""",practice_procedure,confidence_rating,html-slider-response,34,99908,0.0-9.0-0.0-2.7,3PKVGQTFJQLSZOM7OKJDU84QFXXYRA,AQMLJYUQCSG22,3LYA37P8IZODMWDUEA1Y95GZ2HOBK5,83YL4,83YL4,3LYA37P8IZODMWDUEA1Y95GZ2HOBK5,3LYA37P8IZODMWDUEA1Y95GZ2HOBK5,338054,338054,2,0.04,"""",2355.100000143051,100,"<div id=""message-div""><p>How confident are you that your clockwise/counter-clockwise response just now was accurate? Please rate your confidence on the slider bar below.</p></div>","""","""","""",50,"""","""","""",100,"2021-12-31 03:55:25",76.168.193.216,"Mozilla/5.0 (Windows NT 10.0; Win64; x64) AppleWebKit/537.36 (KHTML, like Gecko) Chrome/96.0.4664.110 Safari/537.36",WebKit,Chrome,96.0.4664.110,Windows,10.0,ac0f2dffeffaa78d35a552e03d03f0a8
21,2,"""",practice_procedure,fixation,html-keyboard-response,35,100408,0.0-9.0-0.0-0.8,3PKVGQTFJQLSZOM7OKJDU84QFXXYRA,AQMLJYUQCSG22,3LYA37P8IZODMWDUEA1Y95GZ2HOBK5,83YL4,83YL4,3LYA37P8IZODMWDUEA1Y95GZ2HOBK5,3LYA37P8IZODMWDUEA1Y95GZ2HOBK5,338054,338054,2,0.04,"""",null,null,"<div class = fixationbox><div class = fixation>+</div></div>","""","""","""","""","""","""","""","""","2021-12-31 03:55:25",76.168.193.216,"Mozilla/5.0 (Windows NT 10.0; Win64; x64) AppleWebKit/537.36 (KHTML, like Gecko) Chrome/96.0.4664.110 Safari/537.36",WebKit,Chrome,96.0.4664.110,Windows,10.0,ac0f2dffeffaa78d35a552e03d03f0a8
21,2,"""",practice_procedure,stim_practice,canvas-button-response,36,101478,0.0-9.0-0.0-1.8,3PKVGQTFJQLSZOM7OKJDU84QFXXYRA,AQMLJYUQCSG22,3LYA37P8IZODMWDUEA1Y95GZ2HOBK5,83YL4,83YL4,3LYA37P8IZODMWDUEA1Y95GZ2HOBK5,3LYA37P8IZODMWDUEA1Y95GZ2HOBK5,338054,338054,2,0.04,"""",1034.8999998569489,0,practiceStim2,0,Counter-clockwise,true,"""",0.01,120,0.99,"""","2021-12-31 03:55:25",76.168.193.216,"Mozilla/5.0 (Windows NT 10.0; Win64; x64) AppleWebKit/537.36 (KHTML, like Gecko) Chrome/96.0.4664.110 Safari/537.36",WebKit,Chrome,96.0.4664.110,Windows,10.0,ac0f2dffeffaa78d35a552e03d03f0a8
21,2,"""",practice_procedure,confidence_rating,html-slider-response,37,103910,0.0-9.0-0.0-2.8,3PKVGQTFJQLSZOM7OKJDU84QFXXYRA,AQMLJYUQCSG22,3LYA37P8IZODMWDUEA1Y95GZ2HOBK5,83YL4,83YL4,3LYA37P8IZODMWDUEA1Y95GZ2HOBK5,3LYA37P8IZODMWDUEA1Y95GZ2HOBK5,338054,338054,2,0.04,"""",2431.100000143051,90,"<div id=""message-div""><p>How confident are you that your clockwise/counter-clockwise response just now was accurate? Please rate your confidence on the slider bar below.</p></div>","""","""","""",50,"""","""","""",90,"2021-12-31 03:55:25",76.168.193.216,"Mozilla/5.0 (Windows NT 10.0; Win64; x64) AppleWebKit/537.36 (KHTML, like Gecko) Chrome/96.0.4664.110 Safari/537.36",WebKit,Chrome,96.0.4664.110,Windows,10.0,ac0f2dffeffaa78d35a552e03d03f0a8
21,2,"""",practice_procedure,fixation,html-keyboard-response,38,104413,0.0-9.0-0.0-0.9,3PKVGQTFJQLSZOM7OKJDU84QFXXYRA,AQMLJYUQCSG22,3LYA37P8IZODMWDUEA1Y95GZ2HOBK5,83YL4,83YL4,3LYA37P8IZODMWDUEA1Y95GZ2HOBK5,3LYA37P8IZODMWDUEA1Y95GZ2HOBK5,338054,338054,2,0.04,"""",null,null,"<div class = fixationbox><div class = fixation>+</div></div>","""","""","""","""","""","""","""","""","2021-12-31 03:55:25",76.168.193.216,"Mozilla/5.0 (Windows NT 10.0; Win64; x64) AppleWebKit/537.36 (KHTML, like Gecko) Chrome/96.0.4664.110 Safari/537.36",WebKit,Chrome,96.0.4664.110,Windows,10.0,ac0f2dffeffaa78d35a552e03d03f0a8
21,2,"""",practice_procedure,stim_practice,canvas-button-response,39,107360,0.0-9.0-0.0-1.9,3PKVGQTFJQLSZOM7OKJDU84QFXXYRA,AQMLJYUQCSG22,3LYA37P8IZODMWDUEA1Y95GZ2HOBK5,83YL4,83YL4,3LYA37P8IZODMWDUEA1Y95GZ2HOBK5,3LYA37P8IZODMWDUEA1Y95GZ2HOBK5,338054,338054,2,0.04,"""",2914.2999999523163,1,practiceStim1,1,Clockwise,true,"""",0.01,60,0.99,"""","2021-12-31 03:55:25",76.168.193.216,"Mozilla/5.0 (Windows NT 10.0; Win64; x64) AppleWebKit/537.36 (KHTML, like Gecko) Chrome/96.0.4664.110 Safari/537.36",WebKit,Chrome,96.0.4664.110,Windows,10.0,ac0f2dffeffaa78d35a552e03d03f0a8
21,2,"""",practice_procedure,confidence_rating,html-slider-response,40,109884,0.0-9.0-0.0-2.9,3PKVGQTFJQLSZOM7OKJDU84QFXXYRA,AQMLJYUQCSG22,3LYA37P8IZODMWDUEA1Y95GZ2HOBK5,83YL4,83YL4,3LYA37P8IZODMWDUEA1Y95GZ2HOBK5,3LYA37P8IZODMWDUEA1Y95GZ2HOBK5,338054,338054,2,0.04,"""",2523,100,"<div id=""message-div""><p>How confident are you that your clockwise/counter-clockwise response just now was accurate? Please rate your confidence on the slider bar below.</p></div>","""","""","""",50,"""","""","""",100,"2021-12-31 03:55:25",76.168.193.216,"Mozilla/5.0 (Windows NT 10.0; Win64; x64) AppleWebKit/537.36 (KHTML, like Gecko) Chrome/96.0.4664.110 Safari/537.36",WebKit,Chrome,96.0.4664.110,Windows,10.0,ac0f2dffeffaa78d35a552e03d03f0a8
21,2,"""",pre-test,test_instruction,instructions,41,218958,0.0-10.0,3PKVGQTFJQLSZOM7OKJDU84QFXXYRA,AQMLJYUQCSG22,3LYA37P8IZODMWDUEA1Y95GZ2HOBK5,83YL4,83YL4,3LYA37P8IZODMWDUEA1Y95GZ2HOBK5,3LYA37P8IZODMWDUEA1Y95GZ2HOBK5,338054,338054,2,0.04,"[{""page_index"":0,""viewing_time"":109071.40000009537}]",109071.60000014305,"""","""","""","""","""","""","""","""","""","""","2021-12-31 03:55:25",76.168.193.216,"Mozilla/5.0 (Windows NT 10.0; Win64; x64) AppleWebKit/537.36 (KHTML, like Gecko) Chrome/96.0.4664.110 Safari/537.36",WebKit,Chrome,96.0.4664.110,Windows,10.0,ac0f2dffeffaa78d35a552e03d03f0a8
21,2,"""",test_procedure,fixation,html-keyboard-response,42,219460,0.0-11.0-0.0-0.0,3PKVGQTFJQLSZOM7OKJDU84QFXXYRA,AQMLJYUQCSG22,3LYA37P8IZODMWDUEA1Y95GZ2HOBK5,83YL4,83YL4,3LYA37P8IZODMWDUEA1Y95GZ2HOBK5,3LYA37P8IZODMWDUEA1Y95GZ2HOBK5,338054,338054,2,0.04,"""",null,null,"<div class = fixationbox><div class = fixation>+</div></div>","""","""","""","""","""","""","""","""","2021-12-31 03:55:25",76.168.193.216,"Mozilla/5.0 (Windows NT 10.0; Win64; x64) AppleWebKit/537.36 (KHTML, like Gecko) Chrome/96.0.4664.110 Safari/537.36",WebKit,Chrome,96.0.4664.110,Windows,10.0,ac0f2dffeffaa78d35a552e03d03f0a8
21,2,"""",test_procedure,stim_test,canvas-button-response,43,221434,0.0-11.0-0.0-1.0,3PKVGQTFJQLSZOM7OKJDU84QFXXYRA,AQMLJYUQCSG22,3LYA37P8IZODMWDUEA1Y95GZ2HOBK5,83YL4,83YL4,3LYA37P8IZODMWDUEA1Y95GZ2HOBK5,3LYA37P8IZODMWDUEA1Y95GZ2HOBK5,338054,338054,2,0.04,"""",1927.1999998092651,0,catchStim4,0,Counter-clockwise,true,"""",0.01,120,0.001,"""","2021-12-31 03:55:25",76.168.193.216,"Mozilla/5.0 (Windows NT 10.0; Win64; x64) AppleWebKit/537.36 (KHTML, like Gecko) Chrome/96.0.4664.110 Safari/537.36",WebKit,Chrome,96.0.4664.110,Windows,10.0,ac0f2dffeffaa78d35a552e03d03f0a8
21,2,"""",test_procedure,confidence_rating,html-slider-response,44,225438,0.0-11.0-0.0-2.0,3PKVGQTFJQLSZOM7OKJDU84QFXXYRA,AQMLJYUQCSG22,3LYA37P8IZODMWDUEA1Y95GZ2HOBK5,83YL4,83YL4,3LYA37P8IZODMWDUEA1Y95GZ2HOBK5,3LYA37P8IZODMWDUEA1Y95GZ2HOBK5,338054,338054,2,0.04,"""",4003.0999999046326,0,"<div id=""message-div""><p>How confident are you that your clockwise/counter-clockwise response just now was accurate? Please rate your confidence on the slider bar below.</p></div>","""","""","""",50,"""","""","""",0,"2021-12-31 03:55:25",76.168.193.216,"Mozilla/5.0 (Windows NT 10.0; Win64; x64) AppleWebKit/537.36 (KHTML, like Gecko) Chrome/96.0.4664.110 Safari/537.36",WebKit,Chrome,96.0.4664.110,Windows,10.0,ac0f2dffeffaa78d35a552e03d03f0a8
21,2,"""",test_procedure,fixation,html-keyboard-response,45,225942,0.0-11.0-0.0-0.1,3PKVGQTFJQLSZOM7OKJDU84QFXXYRA,AQMLJYUQCSG22,3LYA37P8IZODMWDUEA1Y95GZ2HOBK5,83YL4,83YL4,3LYA37P8IZODMWDUEA1Y95GZ2HOBK5,3LYA37P8IZODMWDUEA1Y95GZ2HOBK5,338054,338054,2,0.04,"""",null,null,"<div class = fixationbox><div class = fixation>+</div></div>","""","""","""","""","""","""","""","""","2021-12-31 03:55:25",76.168.193.216,"Mozilla/5.0 (Windows NT 10.0; Win64; x64) AppleWebKit/537.36 (KHTML, like Gecko) Chrome/96.0.4664.110 Safari/537.36",WebKit,Chrome,96.0.4664.110,Windows,10.0,ac0f2dffeffaa78d35a552e03d03f0a8
21,2,"""",test_procedure,stim_test,canvas-button-response,46,228356,0.0-11.0-0.0-1.1,3PKVGQTFJQLSZOM7OKJDU84QFXXYRA,AQMLJYUQCSG22,3LYA37P8IZODMWDUEA1Y95GZ2HOBK5,83YL4,83YL4,3LYA37P8IZODMWDUEA1Y95GZ2HOBK5,3LYA37P8IZODMWDUEA1Y95GZ2HOBK5,338054,338054,2,0.04,"""",2375.7999999523163,1,catchStim7,1,Clockwise,true,"""",0.3,60,0.001,"""","2021-12-31 03:55:25",76.168.193.216,"Mozilla/5.0 (Windows NT 10.0; Win64; x64) AppleWebKit/537.36 (KHTML, like Gecko) Chrome/96.0.4664.110 Safari/537.36",WebKit,Chrome,96.0.4664.110,Windows,10.0,ac0f2dffeffaa78d35a552e03d03f0a8
21,2,"""",test_procedure,confidence_rating,html-slider-response,47,230078,0.0-11.0-0.0-2.1,3PKVGQTFJQLSZOM7OKJDU84QFXXYRA,AQMLJYUQCSG22,3LYA37P8IZODMWDUEA1Y95GZ2HOBK5,83YL4,83YL4,3LYA37P8IZODMWDUEA1Y95GZ2HOBK5,3LYA37P8IZODMWDUEA1Y95GZ2HOBK5,338054,338054,2,0.04,"""",1720.8999998569489,78,"<div id=""message-div""><p>How confident are you that your clockwise/counter-clockwise response just now was accurate? Please rate your confidence on the slider bar below.</p></div>","""","""","""",50,"""","""","""",78,"2021-12-31 03:55:25",76.168.193.216,"Mozilla/5.0 (Windows NT 10.0; Win64; x64) AppleWebKit/537.36 (KHTML, like Gecko) Chrome/96.0.4664.110 Safari/537.36",WebKit,Chrome,96.0.4664.110,Windows,10.0,ac0f2dffeffaa78d35a552e03d03f0a8
21,2,"""",test_procedure,fixation,html-keyboard-response,48,230578,0.0-11.0-0.0-0.2,3PKVGQTFJQLSZOM7OKJDU84QFXXYRA,AQMLJYUQCSG22,3LYA37P8IZODMWDUEA1Y95GZ2HOBK5,83YL4,83YL4,3LYA37P8IZODMWDUEA1Y95GZ2HOBK5,3LYA37P8IZODMWDUEA1Y95GZ2HOBK5,338054,338054,2,0.04,"""",null,null,"<div class = fixationbox><div class = fixation>+</div></div>","""","""","""","""","""","""","""","""","2021-12-31 03:55:25",76.168.193.216,"Mozilla/5.0 (Windows NT 10.0; Win64; x64) AppleWebKit/537.36 (KHTML, like Gecko) Chrome/96.0.4664.110 Safari/537.36",WebKit,Chrome,96.0.4664.110,Windows,10.0,ac0f2dffeffaa78d35a552e03d03f0a8
21,2,"""",test_procedure,stim_test,canvas-button-response,49,232514,0.0-11.0-0.0-1.2,3PKVGQTFJQLSZOM7OKJDU84QFXXYRA,AQMLJYUQCSG22,3LYA37P8IZODMWDUEA1Y95GZ2HOBK5,83YL4,83YL4,3LYA37P8IZODMWDUEA1Y95GZ2HOBK5,3LYA37P8IZODMWDUEA1Y95GZ2HOBK5,338054,338054,2,0.04,"""",1900.1999998092651,0,stim2,0,Counter-clockwise,true,"""",0.01,120,"""","""","2021-12-31 03:55:25",76.168.193.216,"Mozilla/5.0 (Windows NT 10.0; Win64; x64) AppleWebKit/537.36 (KHTML, like Gecko) Chrome/96.0.4664.110 Safari/537.36",WebKit,Chrome,96.0.4664.110,Windows,10.0,ac0f2dffeffaa78d35a552e03d03f0a8
21,2,"""",test_procedure,confidence_rating,html-slider-response,50,235134,0.0-11.0-0.0-2.2,3PKVGQTFJQLSZOM7OKJDU84QFXXYRA,AQMLJYUQCSG22,3LYA37P8IZODMWDUEA1Y95GZ2HOBK5,83YL4,83YL4,3LYA37P8IZODMWDUEA1Y95GZ2HOBK5,3LYA37P8IZODMWDUEA1Y95GZ2HOBK5,338054,338054,2,0.04,"""",2617.5999999046326,0,"<div id=""message-div""><p>How confident are you that your clockwise/counter-clockwise response just now was accurate? Please rate your confidence on the slider bar below.</p></div>","""","""","""",50,"""","""","""",0,"2021-12-31 03:55:25",76.168.193.216,"Mozilla/5.0 (Windows NT 10.0; Win64; x64) AppleWebKit/537.36 (KHTML, like Gecko) Chrome/96.0.4664.110 Safari/537.36",WebKit,Chrome,96.0.4664.110,Windows,10.0,ac0f2dffeffaa78d35a552e03d03f0a8
21,2,"""",test_procedure,fixation,html-keyboard-response,51,235634,0.0-11.0-0.0-0.3,3PKVGQTFJQLSZOM7OKJDU84QFXXYRA,AQMLJYUQCSG22,3LYA37P8IZODMWDUEA1Y95GZ2HOBK5,83YL4,83YL4,3LYA37P8IZODMWDUEA1Y95GZ2HOBK5,3LYA37P8IZODMWDUEA1Y95GZ2HOBK5,338054,338054,2,0.04,"""",null,null,"<div class = fixationbox><div class = fixation>+</div></div>","""","""","""","""","""","""","""","""","2021-12-31 03:55:25",76.168.193.216,"Mozilla/5.0 (Windows NT 10.0; Win64; x64) AppleWebKit/537.36 (KHTML, like Gecko) Chrome/96.0.4664.110 Safari/537.36",WebKit,Chrome,96.0.4664.110,Windows,10.0,ac0f2dffeffaa78d35a552e03d03f0a8
21,2,"""",test_procedure,stim_test,canvas-button-response,52,238638,0.0-11.0-0.0-1.3,3PKVGQTFJQLSZOM7OKJDU84QFXXYRA,AQMLJYUQCSG22,3LYA37P8IZODMWDUEA1Y95GZ2HOBK5,83YL4,83YL4,3LYA37P8IZODMWDUEA1Y95GZ2HOBK5,3LYA37P8IZODMWDUEA1Y95GZ2HOBK5,338054,338054,2,0.04,"""",2964.9000000953674,1,stim3,1,Clockwise,true,"""",0.3,60,"""","""","2021-12-31 03:55:25",76.168.193.216,"Mozilla/5.0 (Windows NT 10.0; Win64; x64) AppleWebKit/537.36 (KHTML, like Gecko) Chrome/96.0.4664.110 Safari/537.36",WebKit,Chrome,96.0.4664.110,Windows,10.0,ac0f2dffeffaa78d35a552e03d03f0a8
21,2,"""",test_procedure,confidence_rating,html-slider-response,53,240496,0.0-11.0-0.0-2.3,3PKVGQTFJQLSZOM7OKJDU84QFXXYRA,AQMLJYUQCSG22,3LYA37P8IZODMWDUEA1Y95GZ2HOBK5,83YL4,83YL4,3LYA37P8IZODMWDUEA1Y95GZ2HOBK5,3LYA37P8IZODMWDUEA1Y95GZ2HOBK5,338054,338054,2,0.04,"""",1856.0999999046326,46,"<div id=""message-div""><p>How confident are you that your clockwise/counter-clockwise response just now was accurate? Please rate your confidence on the slider bar below.</p></div>","""","""","""",50,"""","""","""",46,"2021-12-31 03:55:25",76.168.193.216,"Mozilla/5.0 (Windows NT 10.0; Win64; x64) AppleWebKit/537.36 (KHTML, like Gecko) Chrome/96.0.4664.110 Safari/537.36",WebKit,Chrome,96.0.4664.110,Windows,10.0,ac0f2dffeffaa78d35a552e03d03f0a8
21,2,"""",test_procedure,fixation,html-keyboard-response,54,240997,0.0-11.0-0.0-0.4,3PKVGQTFJQLSZOM7OKJDU84QFXXYRA,AQMLJYUQCSG22,3LYA37P8IZODMWDUEA1Y95GZ2HOBK5,83YL4,83YL4,3LYA37P8IZODMWDUEA1Y95GZ2HOBK5,3LYA37P8IZODMWDUEA1Y95GZ2HOBK5,338054,338054,2,0.04,"""",null,null,"<div class = fixationbox><div class = fixation>+</div></div>","""","""","""","""","""","""","""","""","2021-12-31 03:55:25",76.168.193.216,"Mozilla/5.0 (Windows NT 10.0; Win64; x64) AppleWebKit/537.36 (KHTML, like Gecko) Chrome/96.0.4664.110 Safari/537.36",WebKit,Chrome,96.0.4664.110,Windows,10.0,ac0f2dffeffaa78d35a552e03d03f0a8
21,2,"""",test_procedure,stim_test,canvas-button-response,55,242324,0.0-11.0-0.0-1.4,3PKVGQTFJQLSZOM7OKJDU84QFXXYRA,AQMLJYUQCSG22,3LYA37P8IZODMWDUEA1Y95GZ2HOBK5,83YL4,83YL4,3LYA37P8IZODMWDUEA1Y95GZ2HOBK5,3LYA37P8IZODMWDUEA1Y95GZ2HOBK5,338054,338054,2,0.04,"""",1292.0999999046326,1,catchStim1,1,Clockwise,true,"""",0.01,60,0.6,"""","2021-12-31 03:55:25",76.168.193.216,"Mozilla/5.0 (Windows NT 10.0; Win64; x64) AppleWebKit/537.36 (KHTML, like Gecko) Chrome/96.0.4664.110 Safari/537.36",WebKit,Chrome,96.0.4664.110,Windows,10.0,ac0f2dffeffaa78d35a552e03d03f0a8
21,2,"""",test_procedure,confidence_rating,html-slider-response,56,244061,0.0-11.0-0.0-2.4,3PKVGQTFJQLSZOM7OKJDU84QFXXYRA,AQMLJYUQCSG22,3LYA37P8IZODMWDUEA1Y95GZ2HOBK5,83YL4,83YL4,3LYA37P8IZODMWDUEA1Y95GZ2HOBK5,3LYA37P8IZODMWDUEA1Y95GZ2HOBK5,338054,338054,2,0.04,"""",1737.1000001430511,80,"<div id=""message-div""><p>How confident are you that your clockwise/counter-clockwise response just now was accurate? Please rate your confidence on the slider bar below.</p></div>","""","""","""",50,"""","""","""",80,"2021-12-31 03:55:25",76.168.193.216,"Mozilla/5.0 (Windows NT 10.0; Win64; x64) AppleWebKit/537.36 (KHTML, like Gecko) Chrome/96.0.4664.110 Safari/537.36",WebKit,Chrome,96.0.4664.110,Windows,10.0,ac0f2dffeffaa78d35a552e03d03f0a8
21,2,"""",test_procedure,fixation,html-keyboard-response,57,244562,0.0-11.0-0.0-0.5,3PKVGQTFJQLSZOM7OKJDU84QFXXYRA,AQMLJYUQCSG22,3LYA37P8IZODMWDUEA1Y95GZ2HOBK5,83YL4,83YL4,3LYA37P8IZODMWDUEA1Y95GZ2HOBK5,3LYA37P8IZODMWDUEA1Y95GZ2HOBK5,338054,338054,2,0.04,"""",null,null,"<div class = fixationbox><div class = fixation>+</div></div>","""","""","""","""","""","""","""","""","2021-12-31 03:55:25",76.168.193.216,"Mozilla/5.0 (Windows NT 10.0; Win64; x64) AppleWebKit/537.36 (KHTML, like Gecko) Chrome/96.0.4664.110 Safari/537.36",WebKit,Chrome,96.0.4664.110,Windows,10.0,ac0f2dffeffaa78d35a552e03d03f0a8
21,2,"""",test_procedure,stim_test,canvas-button-response,58,246202,0.0-11.0-0.0-1.5,3PKVGQTFJQLSZOM7OKJDU84QFXXYRA,AQMLJYUQCSG22,3LYA37P8IZODMWDUEA1Y95GZ2HOBK5,83YL4,83YL4,3LYA37P8IZODMWDUEA1Y95GZ2HOBK5,3LYA37P8IZODMWDUEA1Y95GZ2HOBK5,338054,338054,2,0.04,"""",1606.2999999523163,0,catchStim6,0,Counter-clockwise,true,"""",0.3,120,0.6,"""","2021-12-31 03:55:25",76.168.193.216,"Mozilla/5.0 (Windows NT 10.0; Win64; x64) AppleWebKit/537.36 (KHTML, like Gecko) Chrome/96.0.4664.110 Safari/537.36",WebKit,Chrome,96.0.4664.110,Windows,10.0,ac0f2dffeffaa78d35a552e03d03f0a8
21,2,"""",test_procedure,confidence_rating,html-slider-response,59,248756,0.0-11.0-0.0-2.5,3PKVGQTFJQLSZOM7OKJDU84QFXXYRA,AQMLJYUQCSG22,3LYA37P8IZODMWDUEA1Y95GZ2HOBK5,83YL4,83YL4,3LYA37P8IZODMWDUEA1Y95GZ2HOBK5,3LYA37P8IZODMWDUEA1Y95GZ2HOBK5,338054,338054,2,0.04,"""",2553.2999999523163,92,"<div id=""message-div""><p>How confident are you that your clockwise/counter-clockwise response just now was accurate? Please rate your confidence on the slider bar below.</p></div>","""","""","""",50,"""","""","""",92,"2021-12-31 03:55:25",76.168.193.216,"Mozilla/5.0 (Windows NT 10.0; Win64; x64) AppleWebKit/537.36 (KHTML, like Gecko) Chrome/96.0.4664.110 Safari/537.36",WebKit,Chrome,96.0.4664.110,Windows,10.0,ac0f2dffeffaa78d35a552e03d03f0a8
21,2,"""",test_procedure,fixation,html-keyboard-response,60,249256,0.0-11.0-0.0-0.6,3PKVGQTFJQLSZOM7OKJDU84QFXXYRA,AQMLJYUQCSG22,3LYA37P8IZODMWDUEA1Y95GZ2HOBK5,83YL4,83YL4,3LYA37P8IZODMWDUEA1Y95GZ2HOBK5,3LYA37P8IZODMWDUEA1Y95GZ2HOBK5,338054,338054,2,0.04,"""",null,null,"<div class = fixationbox><div class = fixation>+</div></div>","""","""","""","""","""","""","""","""","2021-12-31 03:55:25",76.168.193.216,"Mozilla/5.0 (Windows NT 10.0; Win64; x64) AppleWebKit/537.36 (KHTML, like Gecko) Chrome/96.0.4664.110 Safari/537.36",WebKit,Chrome,96.0.4664.110,Windows,10.0,ac0f2dffeffaa78d35a552e03d03f0a8
21,2,"""",test_procedure,stim_test,canvas-button-response,61,251434,0.0-11.0-0.0-1.6,3PKVGQTFJQLSZOM7OKJDU84QFXXYRA,AQMLJYUQCSG22,3LYA37P8IZODMWDUEA1Y95GZ2HOBK5,83YL4,83YL4,3LYA37P8IZODMWDUEA1Y95GZ2HOBK5,3LYA37P8IZODMWDUEA1Y95GZ2HOBK5,338054,338054,2,0.04,"""",2143.5999999046326,1,stim4,0,Counter-clockwise,false,"""",0.3,120,"""","""","2021-12-31 03:55:25",76.168.193.216,"Mozilla/5.0 (Windows NT 10.0; Win64; x64) AppleWebKit/537.36 (KHTML, like Gecko) Chrome/96.0.4664.110 Safari/537.36",WebKit,Chrome,96.0.4664.110,Windows,10.0,ac0f2dffeffaa78d35a552e03d03f0a8
21,2,"""",test_procedure,confidence_rating,html-slider-response,62,253012,0.0-11.0-0.0-2.6,3PKVGQTFJQLSZOM7OKJDU84QFXXYRA,AQMLJYUQCSG22,3LYA37P8IZODMWDUEA1Y95GZ2HOBK5,83YL4,83YL4,3LYA37P8IZODMWDUEA1Y95GZ2HOBK5,3LYA37P8IZODMWDUEA1Y95GZ2HOBK5,338054,338054,2,0.04,"""",1575.9000000953674,53,"<div id=""message-div""><p>How confident are you that your clockwise/counter-clockwise response just now was accurate? Please rate your confidence on the slider bar below.</p></div>","""","""","""",50,"""","""","""",53,"2021-12-31 03:55:25",76.168.193.216,"Mozilla/5.0 (Windows NT 10.0; Win64; x64) AppleWebKit/537.36 (KHTML, like Gecko) Chrome/96.0.4664.110 Safari/537.36",WebKit,Chrome,96.0.4664.110,Windows,10.0,ac0f2dffeffaa78d35a552e03d03f0a8
21,2,"""",test_procedure,fixation,html-keyboard-response,63,253514,0.0-11.0-0.0-0.7,3PKVGQTFJQLSZOM7OKJDU84QFXXYRA,AQMLJYUQCSG22,3LYA37P8IZODMWDUEA1Y95GZ2HOBK5,83YL4,83YL4,3LYA37P8IZODMWDUEA1Y95GZ2HOBK5,3LYA37P8IZODMWDUEA1Y95GZ2HOBK5,338054,338054,2,0.04,"""",null,null,"<div class = fixationbox><div class = fixation>+</div></div>","""","""","""","""","""","""","""","""","2021-12-31 03:55:25",76.168.193.216,"Mozilla/5.0 (Windows NT 10.0; Win64; x64) AppleWebKit/537.36 (KHTML, like Gecko) Chrome/96.0.4664.110 Safari/537.36",WebKit,Chrome,96.0.4664.110,Windows,10.0,ac0f2dffeffaa78d35a552e03d03f0a8
21,2,"""",test_procedure,stim_test,canvas-button-response,64,255456,0.0-11.0-0.0-1.7,3PKVGQTFJQLSZOM7OKJDU84QFXXYRA,AQMLJYUQCSG22,3LYA37P8IZODMWDUEA1Y95GZ2HOBK5,83YL4,83YL4,3LYA37P8IZODMWDUEA1Y95GZ2HOBK5,3LYA37P8IZODMWDUEA1Y95GZ2HOBK5,338054,338054,2,0.04,"""",1909.5999999046326,0,stim3,1,Clockwise,false,"""",0.3,60,"""","""","2021-12-31 03:55:25",76.168.193.216,"Mozilla/5.0 (Windows NT 10.0; Win64; x64) AppleWebKit/537.36 (KHTML, like Gecko) Chrome/96.0.4664.110 Safari/537.36",WebKit,Chrome,96.0.4664.110,Windows,10.0,ac0f2dffeffaa78d35a552e03d03f0a8
21,2,"""",test_procedure,confidence_rating,html-slider-response,65,257186,0.0-11.0-0.0-2.7,3PKVGQTFJQLSZOM7OKJDU84QFXXYRA,AQMLJYUQCSG22,3LYA37P8IZODMWDUEA1Y95GZ2HOBK5,83YL4,83YL4,3LYA37P8IZODMWDUEA1Y95GZ2HOBK5,3LYA37P8IZODMWDUEA1Y95GZ2HOBK5,338054,338054,2,0.04,"""",1729.3999998569489,51,"<div id=""message-div""><p>How confident are you that your clockwise/counter-clockwise response just now was accurate? Please rate your confidence on the slider bar below.</p></div>","""","""","""",50,"""","""","""",51,"2021-12-31 03:55:25",76.168.193.216,"Mozilla/5.0 (Windows NT 10.0; Win64; x64) AppleWebKit/537.36 (KHTML, like Gecko) Chrome/96.0.4664.110 Safari/537.36",WebKit,Chrome,96.0.4664.110,Windows,10.0,ac0f2dffeffaa78d35a552e03d03f0a8
21,2,"""",test_procedure,fixation,html-keyboard-response,66,257687,0.0-11.0-0.0-0.8,3PKVGQTFJQLSZOM7OKJDU84QFXXYRA,AQMLJYUQCSG22,3LYA37P8IZODMWDUEA1Y95GZ2HOBK5,83YL4,83YL4,3LYA37P8IZODMWDUEA1Y95GZ2HOBK5,3LYA37P8IZODMWDUEA1Y95GZ2HOBK5,338054,338054,2,0.04,"""",null,null,"<div class = fixationbox><div class = fixation>+</div></div>","""","""","""","""","""","""","""","""","2021-12-31 03:55:25",76.168.193.216,"Mozilla/5.0 (Windows NT 10.0; Win64; x64) AppleWebKit/537.36 (KHTML, like Gecko) Chrome/96.0.4664.110 Safari/537.36",WebKit,Chrome,96.0.4664.110,Windows,10.0,ac0f2dffeffaa78d35a552e03d03f0a8
21,2,"""",test_procedure,stim_test,canvas-button-response,67,259275,0.0-11.0-0.0-1.8,3PKVGQTFJQLSZOM7OKJDU84QFXXYRA,AQMLJYUQCSG22,3LYA37P8IZODMWDUEA1Y95GZ2HOBK5,83YL4,83YL4,3LYA37P8IZODMWDUEA1Y95GZ2HOBK5,3LYA37P8IZODMWDUEA1Y95GZ2HOBK5,338054,338054,2,0.04,"""",1554.5,1,stim1,1,Clockwise,true,"""",0.01,60,"""","""","2021-12-31 03:55:25",76.168.193.216,"Mozilla/5.0 (Windows NT 10.0; Win64; x64) AppleWebKit/537.36 (KHTML, like Gecko) Chrome/96.0.4664.110 Safari/537.36",WebKit,Chrome,96.0.4664.110,Windows,10.0,ac0f2dffeffaa78d35a552e03d03f0a8
21,2,"""",test_procedure,confidence_rating,html-slider-response,68,261053,0.0-11.0-0.0-2.8,3PKVGQTFJQLSZOM7OKJDU84QFXXYRA,AQMLJYUQCSG22,3LYA37P8IZODMWDUEA1Y95GZ2HOBK5,83YL4,83YL4,3LYA37P8IZODMWDUEA1Y95GZ2HOBK5,3LYA37P8IZODMWDUEA1Y95GZ2HOBK5,338054,338054,2,0.04,"""",1777.2999999523163,65,"<div id=""message-div""><p>How confident are you that your clockwise/counter-clockwise response just now was accurate? Please rate your confidence on the slider bar below.</p></div>","""","""","""",50,"""","""","""",65,"2021-12-31 03:55:25",76.168.193.216,"Mozilla/5.0 (Windows NT 10.0; Win64; x64) AppleWebKit/537.36 (KHTML, like Gecko) Chrome/96.0.4664.110 Safari/537.36",WebKit,Chrome,96.0.4664.110,Windows,10.0,ac0f2dffeffaa78d35a552e03d03f0a8
21,2,"""",test_procedure,fixation,html-keyboard-response,69,261555,0.0-11.0-0.0-0.9,3PKVGQTFJQLSZOM7OKJDU84QFXXYRA,AQMLJYUQCSG22,3LYA37P8IZODMWDUEA1Y95GZ2HOBK5,83YL4,83YL4,3LYA37P8IZODMWDUEA1Y95GZ2HOBK5,3LYA37P8IZODMWDUEA1Y95GZ2HOBK5,338054,338054,2,0.04,"""",null,null,"<div class = fixationbox><div class = fixation>+</div></div>","""","""","""","""","""","""","""","""","2021-12-31 03:55:25",76.168.193.216,"Mozilla/5.0 (Windows NT 10.0; Win64; x64) AppleWebKit/537.36 (KHTML, like Gecko) Chrome/96.0.4664.110 Safari/537.36",WebKit,Chrome,96.0.4664.110,Windows,10.0,ac0f2dffeffaa78d35a552e03d03f0a8
21,2,"""",test_procedure,stim_test,canvas-button-response,70,262742,0.0-11.0-0.0-1.9,3PKVGQTFJQLSZOM7OKJDU84QFXXYRA,AQMLJYUQCSG22,3LYA37P8IZODMWDUEA1Y95GZ2HOBK5,83YL4,83YL4,3LYA37P8IZODMWDUEA1Y95GZ2HOBK5,3LYA37P8IZODMWDUEA1Y95GZ2HOBK5,338054,338054,2,0.04,"""",1153.7999999523163,1,catchStim8,0,Counter-clockwise,false,"""",0.3,120,0.001,"""","2021-12-31 03:55:25",76.168.193.216,"Mozilla/5.0 (Windows NT 10.0; Win64; x64) AppleWebKit/537.36 (KHTML, like Gecko) Chrome/96.0.4664.110 Safari/537.36",WebKit,Chrome,96.0.4664.110,Windows,10.0,ac0f2dffeffaa78d35a552e03d03f0a8
21,2,"""",test_procedure,confidence_rating,html-slider-response,71,264054,0.0-11.0-0.0-2.9,3PKVGQTFJQLSZOM7OKJDU84QFXXYRA,AQMLJYUQCSG22,3LYA37P8IZODMWDUEA1Y95GZ2HOBK5,83YL4,83YL4,3LYA37P8IZODMWDUEA1Y95GZ2HOBK5,3LYA37P8IZODMWDUEA1Y95GZ2HOBK5,338054,338054,2,0.04,"""",1311.2000000476837,78,"<div id=""message-div""><p>How confident are you that your clockwise/counter-clockwise response just now was accurate? Please rate your confidence on the slider bar below.</p></div>","""","""","""",50,"""","""","""",78,"2021-12-31 03:55:25",76.168.193.216,"Mozilla/5.0 (Windows NT 10.0; Win64; x64) AppleWebKit/537.36 (KHTML, like Gecko) Chrome/96.0.4664.110 Safari/537.36",WebKit,Chrome,96.0.4664.110,Windows,10.0,ac0f2dffeffaa78d35a552e03d03f0a8
21,2,"""",test_procedure,fixation,html-keyboard-response,72,264557,0.0-11.0-0.0-0.10,3PKVGQTFJQLSZOM7OKJDU84QFXXYRA,AQMLJYUQCSG22,3LYA37P8IZODMWDUEA1Y95GZ2HOBK5,83YL4,83YL4,3LYA37P8IZODMWDUEA1Y95GZ2HOBK5,3LYA37P8IZODMWDUEA1Y95GZ2HOBK5,338054,338054,2,0.04,"""",null,null,"<div class = fixationbox><div class = fixation>+</div></div>","""","""","""","""","""","""","""","""","2021-12-31 03:55:25",76.168.193.216,"Mozilla/5.0 (Windows NT 10.0; Win64; x64) AppleWebKit/537.36 (KHTML, like Gecko) Chrome/96.0.4664.110 Safari/537.36",WebKit,Chrome,96.0.4664.110,Windows,10.0,ac0f2dffeffaa78d35a552e03d03f0a8
21,2,"""",test_procedure,stim_test,canvas-button-response,73,265702,0.0-11.0-0.0-1.10,3PKVGQTFJQLSZOM7OKJDU84QFXXYRA,AQMLJYUQCSG22,3LYA37P8IZODMWDUEA1Y95GZ2HOBK5,83YL4,83YL4,3LYA37P8IZODMWDUEA1Y95GZ2HOBK5,3LYA37P8IZODMWDUEA1Y95GZ2HOBK5,338054,338054,2,0.04,"""",1109.7999999523163,1,stim3,1,Clockwise,true,"""",0.3,60,"""","""","2021-12-31 03:55:25",76.168.193.216,"Mozilla/5.0 (Windows NT 10.0; Win64; x64) AppleWebKit/537.36 (KHTML, like Gecko) Chrome/96.0.4664.110 Safari/537.36",WebKit,Chrome,96.0.4664.110,Windows,10.0,ac0f2dffeffaa78d35a552e03d03f0a8
21,2,"""",test_procedure,confidence_rating,html-slider-response,74,267599,0.0-11.0-0.0-2.10,3PKVGQTFJQLSZOM7OKJDU84QFXXYRA,AQMLJYUQCSG22,3LYA37P8IZODMWDUEA1Y95GZ2HOBK5,83YL4,83YL4,3LYA37P8IZODMWDUEA1Y95GZ2HOBK5,3LYA37P8IZODMWDUEA1Y95GZ2HOBK5,338054,338054,2,0.04,"""",1897.2000000476837,48,"<div id=""message-div""><p>How confident are you that your clockwise/counter-clockwise response just now was accurate? Please rate your confidence on the slider bar below.</p></div>","""","""","""",50,"""","""","""",48,"2021-12-31 03:55:25",76.168.193.216,"Mozilla/5.0 (Windows NT 10.0; Win64; x64) AppleWebKit/537.36 (KHTML, like Gecko) Chrome/96.0.4664.110 Safari/537.36",WebKit,Chrome,96.0.4664.110,Windows,10.0,ac0f2dffeffaa78d35a552e03d03f0a8
21,2,"""",test_procedure,fixation,html-keyboard-response,75,268100,0.0-11.0-0.0-0.11,3PKVGQTFJQLSZOM7OKJDU84QFXXYRA,AQMLJYUQCSG22,3LYA37P8IZODMWDUEA1Y95GZ2HOBK5,83YL4,83YL4,3LYA37P8IZODMWDUEA1Y95GZ2HOBK5,3LYA37P8IZODMWDUEA1Y95GZ2HOBK5,338054,338054,2,0.04,"""",null,null,"<div class = fixationbox><div class = fixation>+</div></div>","""","""","""","""","""","""","""","""","2021-12-31 03:55:25",76.168.193.216,"Mozilla/5.0 (Windows NT 10.0; Win64; x64) AppleWebKit/537.36 (KHTML, like Gecko) Chrome/96.0.4664.110 Safari/537.36",WebKit,Chrome,96.0.4664.110,Windows,10.0,ac0f2dffeffaa78d35a552e03d03f0a8
21,2,"""",test_procedure,stim_test,canvas-button-response,76,269884,0.0-11.0-0.0-1.11,3PKVGQTFJQLSZOM7OKJDU84QFXXYRA,AQMLJYUQCSG22,3LYA37P8IZODMWDUEA1Y95GZ2HOBK5,83YL4,83YL4,3LYA37P8IZODMWDUEA1Y95GZ2HOBK5,3LYA37P8IZODMWDUEA1Y95GZ2HOBK5,338054,338054,2,0.04,"""",1750.7000000476837,1,stim4,0,Counter-clockwise,false,"""",0.3,120,"""","""","2021-12-31 03:55:25",76.168.193.216,"Mozilla/5.0 (Windows NT 10.0; Win64; x64) AppleWebKit/537.36 (KHTML, like Gecko) Chrome/96.0.4664.110 Safari/537.36",WebKit,Chrome,96.0.4664.110,Windows,10.0,ac0f2dffeffaa78d35a552e03d03f0a8
21,2,"""",test_procedure,confidence_rating,html-slider-response,77,271126,0.0-11.0-0.0-2.11,3PKVGQTFJQLSZOM7OKJDU84QFXXYRA,AQMLJYUQCSG22,3LYA37P8IZODMWDUEA1Y95GZ2HOBK5,83YL4,83YL4,3LYA37P8IZODMWDUEA1Y95GZ2HOBK5,3LYA37P8IZODMWDUEA1Y95GZ2HOBK5,338054,338054,2,0.04,"""",1241.2999999523163,53,"<div id=""message-div""><p>How confident are you that your clockwise/counter-clockwise response just now was accurate? Please rate your confidence on the slider bar below.</p></div>","""","""","""",50,"""","""","""",53,"2021-12-31 03:55:25",76.168.193.216,"Mozilla/5.0 (Windows NT 10.0; Win64; x64) AppleWebKit/537.36 (KHTML, like Gecko) Chrome/96.0.4664.110 Safari/537.36",WebKit,Chrome,96.0.4664.110,Windows,10.0,ac0f2dffeffaa78d35a552e03d03f0a8
21,2,"""",test_procedure,fixation,html-keyboard-response,78,271641,0.0-11.0-0.0-0.12,3PKVGQTFJQLSZOM7OKJDU84QFXXYRA,AQMLJYUQCSG22,3LYA37P8IZODMWDUEA1Y95GZ2HOBK5,83YL4,83YL4,3LYA37P8IZODMWDUEA1Y95GZ2HOBK5,3LYA37P8IZODMWDUEA1Y95GZ2HOBK5,338054,338054,2,0.04,"""",null,null,"<div class = fixationbox><div class = fixation>+</div></div>","""","""","""","""","""","""","""","""","2021-12-31 03:55:25",76.168.193.216,"Mozilla/5.0 (Windows NT 10.0; Win64; x64) AppleWebKit/537.36 (KHTML, like Gecko) Chrome/96.0.4664.110 Safari/537.36",WebKit,Chrome,96.0.4664.110,Windows,10.0,ac0f2dffeffaa78d35a552e03d03f0a8
21,2,"""",test_procedure,stim_test,canvas-button-response,79,272784,0.0-11.0-0.0-1.12,3PKVGQTFJQLSZOM7OKJDU84QFXXYRA,AQMLJYUQCSG22,3LYA37P8IZODMWDUEA1Y95GZ2HOBK5,83YL4,83YL4,3LYA37P8IZODMWDUEA1Y95GZ2HOBK5,3LYA37P8IZODMWDUEA1Y95GZ2HOBK5,338054,338054,2,0.04,"""",1108.9000000953674,0,catchStim3,1,Clockwise,false,"""",0.01,60,0.001,"""","2021-12-31 03:55:25",76.168.193.216,"Mozilla/5.0 (Windows NT 10.0; Win64; x64) AppleWebKit/537.36 (KHTML, like Gecko) Chrome/96.0.4664.110 Safari/537.36",WebKit,Chrome,96.0.4664.110,Windows,10.0,ac0f2dffeffaa78d35a552e03d03f0a8
21,2,"""",test_procedure,confidence_rating,html-slider-response,80,274217,0.0-11.0-0.0-2.12,3PKVGQTFJQLSZOM7OKJDU84QFXXYRA,AQMLJYUQCSG22,3LYA37P8IZODMWDUEA1Y95GZ2HOBK5,83YL4,83YL4,3LYA37P8IZODMWDUEA1Y95GZ2HOBK5,3LYA37P8IZODMWDUEA1Y95GZ2HOBK5,338054,338054,2,0.04,"""",1432.8000001907349,40,"<div id=""message-div""><p>How confident are you that your clockwise/counter-clockwise response just now was accurate? Please rate your confidence on the slider bar below.</p></div>","""","""","""",50,"""","""","""",40,"2021-12-31 03:55:25",76.168.193.216,"Mozilla/5.0 (Windows NT 10.0; Win64; x64) AppleWebKit/537.36 (KHTML, like Gecko) Chrome/96.0.4664.110 Safari/537.36",WebKit,Chrome,96.0.4664.110,Windows,10.0,ac0f2dffeffaa78d35a552e03d03f0a8
21,2,"""",test_procedure,fixation,html-keyboard-response,81,274719,0.0-11.0-0.0-0.13,3PKVGQTFJQLSZOM7OKJDU84QFXXYRA,AQMLJYUQCSG22,3LYA37P8IZODMWDUEA1Y95GZ2HOBK5,83YL4,83YL4,3LYA37P8IZODMWDUEA1Y95GZ2HOBK5,3LYA37P8IZODMWDUEA1Y95GZ2HOBK5,338054,338054,2,0.04,"""",null,null,"<div class = fixationbox><div class = fixation>+</div></div>","""","""","""","""","""","""","""","""","2021-12-31 03:55:25",76.168.193.216,"Mozilla/5.0 (Windows NT 10.0; Win64; x64) AppleWebKit/537.36 (KHTML, like Gecko) Chrome/96.0.4664.110 Safari/537.36",WebKit,Chrome,96.0.4664.110,Windows,10.0,ac0f2dffeffaa78d35a552e03d03f0a8
21,2,"""",test_procedure,stim_test,canvas-button-response,82,277006,0.0-11.0-0.0-1.13,3PKVGQTFJQLSZOM7OKJDU84QFXXYRA,AQMLJYUQCSG22,3LYA37P8IZODMWDUEA1Y95GZ2HOBK5,83YL4,83YL4,3LYA37P8IZODMWDUEA1Y95GZ2HOBK5,3LYA37P8IZODMWDUEA1Y95GZ2HOBK5,338054,338054,2,0.04,"""",2254.7000000476837,0,stim2,0,Counter-clockwise,true,"""",0.01,120,"""","""","2021-12-31 03:55:25",76.168.193.216,"Mozilla/5.0 (Windows NT 10.0; Win64; x64) AppleWebKit/537.36 (KHTML, like Gecko) Chrome/96.0.4664.110 Safari/537.36",WebKit,Chrome,96.0.4664.110,Windows,10.0,ac0f2dffeffaa78d35a552e03d03f0a8
21,2,"""",test_procedure,confidence_rating,html-slider-response,83,278690,0.0-11.0-0.0-2.13,3PKVGQTFJQLSZOM7OKJDU84QFXXYRA,AQMLJYUQCSG22,3LYA37P8IZODMWDUEA1Y95GZ2HOBK5,83YL4,83YL4,3LYA37P8IZODMWDUEA1Y95GZ2HOBK5,3LYA37P8IZODMWDUEA1Y95GZ2HOBK5,338054,338054,2,0.04,"""",1681.5,20,"<div id=""message-div""><p>How confident are you that your clockwise/counter-clockwise response just now was accurate? Please rate your confidence on the slider bar below.</p></div>","""","""","""",50,"""","""","""",20,"2021-12-31 03:55:25",76.168.193.216,"Mozilla/5.0 (Windows NT 10.0; Win64; x64) AppleWebKit/537.36 (KHTML, like Gecko) Chrome/96.0.4664.110 Safari/537.36",WebKit,Chrome,96.0.4664.110,Windows,10.0,ac0f2dffeffaa78d35a552e03d03f0a8
21,2,"""",test_procedure,fixation,html-keyboard-response,84,279191,0.0-11.0-0.0-0.14,3PKVGQTFJQLSZOM7OKJDU84QFXXYRA,AQMLJYUQCSG22,3LYA37P8IZODMWDUEA1Y95GZ2HOBK5,83YL4,83YL4,3LYA37P8IZODMWDUEA1Y95GZ2HOBK5,3LYA37P8IZODMWDUEA1Y95GZ2HOBK5,338054,338054,2,0.04,"""",null,null,"<div class = fixationbox><div class = fixation>+</div></div>","""","""","""","""","""","""","""","""","2021-12-31 03:55:25",76.168.193.216,"Mozilla/5.0 (Windows NT 10.0; Win64; x64) AppleWebKit/537.36 (KHTML, like Gecko) Chrome/96.0.4664.110 Safari/537.36",WebKit,Chrome,96.0.4664.110,Windows,10.0,ac0f2dffeffaa78d35a552e03d03f0a8
21,2,"""",test_procedure,stim_test,canvas-button-response,85,280275,0.0-11.0-0.0-1.14,3PKVGQTFJQLSZOM7OKJDU84QFXXYRA,AQMLJYUQCSG22,3LYA37P8IZODMWDUEA1Y95GZ2HOBK5,83YL4,83YL4,3LYA37P8IZODMWDUEA1Y95GZ2HOBK5,3LYA37P8IZODMWDUEA1Y95GZ2HOBK5,338054,338054,2,0.04,"""",1051.1000001430511,0,stim2,0,Counter-clockwise,true,"""",0.01,120,"""","""","2021-12-31 03:55:25",76.168.193.216,"Mozilla/5.0 (Windows NT 10.0; Win64; x64) AppleWebKit/537.36 (KHTML, like Gecko) Chrome/96.0.4664.110 Safari/537.36",WebKit,Chrome,96.0.4664.110,Windows,10.0,ac0f2dffeffaa78d35a552e03d03f0a8
21,2,"""",test_procedure,confidence_rating,html-slider-response,86,281805,0.0-11.0-0.0-2.14,3PKVGQTFJQLSZOM7OKJDU84QFXXYRA,AQMLJYUQCSG22,3LYA37P8IZODMWDUEA1Y95GZ2HOBK5,83YL4,83YL4,3LYA37P8IZODMWDUEA1Y95GZ2HOBK5,3LYA37P8IZODMWDUEA1Y95GZ2HOBK5,338054,338054,2,0.04,"""",1529.2999999523163,25,"<div id=""message-div""><p>How confident are you that your clockwise/counter-clockwise response just now was accurate? Please rate your confidence on the slider bar below.</p></div>","""","""","""",50,"""","""","""",25,"2021-12-31 03:55:25",76.168.193.216,"Mozilla/5.0 (Windows NT 10.0; Win64; x64) AppleWebKit/537.36 (KHTML, like Gecko) Chrome/96.0.4664.110 Safari/537.36",WebKit,Chrome,96.0.4664.110,Windows,10.0,ac0f2dffeffaa78d35a552e03d03f0a8
21,2,"""",test_procedure,fixation,html-keyboard-response,87,282307,0.0-11.0-0.0-0.15,3PKVGQTFJQLSZOM7OKJDU84QFXXYRA,AQMLJYUQCSG22,3LYA37P8IZODMWDUEA1Y95GZ2HOBK5,83YL4,83YL4,3LYA37P8IZODMWDUEA1Y95GZ2HOBK5,3LYA37P8IZODMWDUEA1Y95GZ2HOBK5,338054,338054,2,0.04,"""",null,null,"<div class = fixationbox><div class = fixation>+</div></div>","""","""","""","""","""","""","""","""","2021-12-31 03:55:25",76.168.193.216,"Mozilla/5.0 (Windows NT 10.0; Win64; x64) AppleWebKit/537.36 (KHTML, like Gecko) Chrome/96.0.4664.110 Safari/537.36",WebKit,Chrome,96.0.4664.110,Windows,10.0,ac0f2dffeffaa78d35a552e03d03f0a8
21,2,"""",test_procedure,stim_test,canvas-button-response,88,283336,0.0-11.0-0.0-1.15,3PKVGQTFJQLSZOM7OKJDU84QFXXYRA,AQMLJYUQCSG22,3LYA37P8IZODMWDUEA1Y95GZ2HOBK5,83YL4,83YL4,3LYA37P8IZODMWDUEA1Y95GZ2HOBK5,3LYA37P8IZODMWDUEA1Y95GZ2HOBK5,338054,338054,2,0.04,"""",996.2999999523163,1,stim4,0,Counter-clockwise,false,"""",0.3,120,"""","""","2021-12-31 03:55:25",76.168.193.216,"Mozilla/5.0 (Windows NT 10.0; Win64; x64) AppleWebKit/537.36 (KHTML, like Gecko) Chrome/96.0.4664.110 Safari/537.36",WebKit,Chrome,96.0.4664.110,Windows,10.0,ac0f2dffeffaa78d35a552e03d03f0a8
21,2,"""",test_procedure,confidence_rating,html-slider-response,89,284825,0.0-11.0-0.0-2.15,3PKVGQTFJQLSZOM7OKJDU84QFXXYRA,AQMLJYUQCSG22,3LYA37P8IZODMWDUEA1Y95GZ2HOBK5,83YL4,83YL4,3LYA37P8IZODMWDUEA1Y95GZ2HOBK5,3LYA37P8IZODMWDUEA1Y95GZ2HOBK5,338054,338054,2,0.04,"""",1487.4000000953674,76,"<div id=""message-div""><p>How confident are you that your clockwise/counter-clockwise response just now was accurate? Please rate your confidence on the slider bar below.</p></div>","""","""","""",50,"""","""","""",76,"2021-12-31 03:55:25",76.168.193.216,"Mozilla/5.0 (Windows NT 10.0; Win64; x64) AppleWebKit/537.36 (KHTML, like Gecko) Chrome/96.0.4664.110 Safari/537.36",WebKit,Chrome,96.0.4664.110,Windows,10.0,ac0f2dffeffaa78d35a552e03d03f0a8
21,2,"""",test_procedure,fixation,html-keyboard-response,90,285341,0.0-11.0-0.0-0.16,3PKVGQTFJQLSZOM7OKJDU84QFXXYRA,AQMLJYUQCSG22,3LYA37P8IZODMWDUEA1Y95GZ2HOBK5,83YL4,83YL4,3LYA37P8IZODMWDUEA1Y95GZ2HOBK5,3LYA37P8IZODMWDUEA1Y95GZ2HOBK5,338054,338054,2,0.04,"""",null,null,"<div class = fixationbox><div class = fixation>+</div></div>","""","""","""","""","""","""","""","""","2021-12-31 03:55:25",76.168.193.216,"Mozilla/5.0 (Windows NT 10.0; Win64; x64) AppleWebKit/537.36 (KHTML, like Gecko) Chrome/96.0.4664.110 Safari/537.36",WebKit,Chrome,96.0.4664.110,Windows,10.0,ac0f2dffeffaa78d35a552e03d03f0a8
21,2,"""",test_procedure,stim_test,canvas-button-response,91,286836,0.0-11.0-0.0-1.16,3PKVGQTFJQLSZOM7OKJDU84QFXXYRA,AQMLJYUQCSG22,3LYA37P8IZODMWDUEA1Y95GZ2HOBK5,83YL4,83YL4,3LYA37P8IZODMWDUEA1Y95GZ2HOBK5,3LYA37P8IZODMWDUEA1Y95GZ2HOBK5,338054,338054,2,0.04,"""",1461.0999999046326,1,catchStim5,1,Clockwise,true,"""",0.3,60,0.6,"""","2021-12-31 03:55:25",76.168.193.216,"Mozilla/5.0 (Windows NT 10.0; Win64; x64) AppleWebKit/537.36 (KHTML, like Gecko) Chrome/96.0.4664.110 Safari/537.36",WebKit,Chrome,96.0.4664.110,Windows,10.0,ac0f2dffeffaa78d35a552e03d03f0a8
21,2,"""",test_procedure,confidence_rating,html-slider-response,92,288757,0.0-11.0-0.0-2.16,3PKVGQTFJQLSZOM7OKJDU84QFXXYRA,AQMLJYUQCSG22,3LYA37P8IZODMWDUEA1Y95GZ2HOBK5,83YL4,83YL4,3LYA37P8IZODMWDUEA1Y95GZ2HOBK5,3LYA37P8IZODMWDUEA1Y95GZ2HOBK5,338054,338054,2,0.04,"""",1921.2000000476837,96,"<div id=""message-div""><p>How confident are you that your clockwise/counter-clockwise response just now was accurate? Please rate your confidence on the slider bar below.</p></div>","""","""","""",50,"""","""","""",96,"2021-12-31 03:55:25",76.168.193.216,"Mozilla/5.0 (Windows NT 10.0; Win64; x64) AppleWebKit/537.36 (KHTML, like Gecko) Chrome/96.0.4664.110 Safari/537.36",WebKit,Chrome,96.0.4664.110,Windows,10.0,ac0f2dffeffaa78d35a552e03d03f0a8
21,2,"""",test_procedure,fixation,html-keyboard-response,93,289260,0.0-11.0-0.0-0.17,3PKVGQTFJQLSZOM7OKJDU84QFXXYRA,AQMLJYUQCSG22,3LYA37P8IZODMWDUEA1Y95GZ2HOBK5,83YL4,83YL4,3LYA37P8IZODMWDUEA1Y95GZ2HOBK5,3LYA37P8IZODMWDUEA1Y95GZ2HOBK5,338054,338054,2,0.04,"""",null,null,"<div class = fixationbox><div class = fixation>+</div></div>","""","""","""","""","""","""","""","""","2021-12-31 03:55:25",76.168.193.216,"Mozilla/5.0 (Windows NT 10.0; Win64; x64) AppleWebKit/537.36 (KHTML, like Gecko) Chrome/96.0.4664.110 Safari/537.36",WebKit,Chrome,96.0.4664.110,Windows,10.0,ac0f2dffeffaa78d35a552e03d03f0a8
21,2,"""",test_procedure,stim_test,canvas-button-response,94,290866,0.0-11.0-0.0-1.17,3PKVGQTFJQLSZOM7OKJDU84QFXXYRA,AQMLJYUQCSG22,3LYA37P8IZODMWDUEA1Y95GZ2HOBK5,83YL4,83YL4,3LYA37P8IZODMWDUEA1Y95GZ2HOBK5,3LYA37P8IZODMWDUEA1Y95GZ2HOBK5,338054,338054,2,0.04,"""",1570.5999999046326,1,stim1,1,Clockwise,true,"""",0.01,60,"""","""","2021-12-31 03:55:25",76.168.193.216,"Mozilla/5.0 (Windows NT 10.0; Win64; x64) AppleWebKit/537.36 (KHTML, like Gecko) Chrome/96.0.4664.110 Safari/537.36",WebKit,Chrome,96.0.4664.110,Windows,10.0,ac0f2dffeffaa78d35a552e03d03f0a8
21,2,"""",test_procedure,confidence_rating,html-slider-response,95,292387,0.0-11.0-0.0-2.17,3PKVGQTFJQLSZOM7OKJDU84QFXXYRA,AQMLJYUQCSG22,3LYA37P8IZODMWDUEA1Y95GZ2HOBK5,83YL4,83YL4,3LYA37P8IZODMWDUEA1Y95GZ2HOBK5,3LYA37P8IZODMWDUEA1Y95GZ2HOBK5,338054,338054,2,0.04,"""",1521.2000000476837,77,"<div id=""message-div""><p>How confident are you that your clockwise/counter-clockwise response just now was accurate? Please rate your confidence on the slider bar below.</p></div>","""","""","""",50,"""","""","""",77,"2021-12-31 03:55:25",76.168.193.216,"Mozilla/5.0 (Windows NT 10.0; Win64; x64) AppleWebKit/537.36 (KHTML, like Gecko) Chrome/96.0.4664.110 Safari/537.36",WebKit,Chrome,96.0.4664.110,Windows,10.0,ac0f2dffeffaa78d35a552e03d03f0a8
21,2,"""",test_procedure,fixation,html-keyboard-response,96,292889,0.0-11.0-0.0-0.18,3PKVGQTFJQLSZOM7OKJDU84QFXXYRA,AQMLJYUQCSG22,3LYA37P8IZODMWDUEA1Y95GZ2HOBK5,83YL4,83YL4,3LYA37P8IZODMWDUEA1Y95GZ2HOBK5,3LYA37P8IZODMWDUEA1Y95GZ2HOBK5,338054,338054,2,0.04,"""",null,null,"<div class = fixationbox><div class = fixation>+</div></div>","""","""","""","""","""","""","""","""","2021-12-31 03:55:25",76.168.193.216,"Mozilla/5.0 (Windows NT 10.0; Win64; x64) AppleWebKit/537.36 (KHTML, like Gecko) Chrome/96.0.4664.110 Safari/537.36",WebKit,Chrome,96.0.4664.110,Windows,10.0,ac0f2dffeffaa78d35a552e03d03f0a8
21,2,"""",test_procedure,stim_test,canvas-button-response,97,294325,0.0-11.0-0.0-1.18,3PKVGQTFJQLSZOM7OKJDU84QFXXYRA,AQMLJYUQCSG22,3LYA37P8IZODMWDUEA1Y95GZ2HOBK5,83YL4,83YL4,3LYA37P8IZODMWDUEA1Y95GZ2HOBK5,3LYA37P8IZODMWDUEA1Y95GZ2HOBK5,338054,338054,2,0.04,"""",1403.3000001907349,1,stim3,1,Clockwise,true,"""",0.3,60,"""","""","2021-12-31 03:55:25",76.168.193.216,"Mozilla/5.0 (Windows NT 10.0; Win64; x64) AppleWebKit/537.36 (KHTML, like Gecko) Chrome/96.0.4664.110 Safari/537.36",WebKit,Chrome,96.0.4664.110,Windows,10.0,ac0f2dffeffaa78d35a552e03d03f0a8
21,2,"""",test_procedure,confidence_rating,html-slider-response,98,295967,0.0-11.0-0.0-2.18,3PKVGQTFJQLSZOM7OKJDU84QFXXYRA,AQMLJYUQCSG22,3LYA37P8IZODMWDUEA1Y95GZ2HOBK5,83YL4,83YL4,3LYA37P8IZODMWDUEA1Y95GZ2HOBK5,3LYA37P8IZODMWDUEA1Y95GZ2HOBK5,338054,338054,2,0.04,"""",1641,50,"<div id=""message-div""><p>How confident are you that your clockwise/counter-clockwise response just now was accurate? Please rate your confidence on the slider bar below.</p></div>","""","""","""",50,"""","""","""",50,"2021-12-31 03:55:25",76.168.193.216,"Mozilla/5.0 (Windows NT 10.0; Win64; x64) AppleWebKit/537.36 (KHTML, like Gecko) Chrome/96.0.4664.110 Safari/537.36",WebKit,Chrome,96.0.4664.110,Windows,10.0,ac0f2dffeffaa78d35a552e03d03f0a8
21,2,"""",test_procedure,fixation,html-keyboard-response,99,296471,0.0-11.0-0.0-0.19,3PKVGQTFJQLSZOM7OKJDU84QFXXYRA,AQMLJYUQCSG22,3LYA37P8IZODMWDUEA1Y95GZ2HOBK5,83YL4,83YL4,3LYA37P8IZODMWDUEA1Y95GZ2HOBK5,3LYA37P8IZODMWDUEA1Y95GZ2HOBK5,338054,338054,2,0.04,"""",null,null,"<div class = fixationbox><div class = fixation>+</div></div>","""","""","""","""","""","""","""","""","2021-12-31 03:55:25",76.168.193.216,"Mozilla/5.0 (Windows NT 10.0; Win64; x64) AppleWebKit/537.36 (KHTML, like Gecko) Chrome/96.0.4664.110 Safari/537.36",WebKit,Chrome,96.0.4664.110,Windows,10.0,ac0f2dffeffaa78d35a552e03d03f0a8
21,2,"""",test_procedure,stim_test,canvas-button-response,100,297643,0.0-11.0-0.0-1.19,3PKVGQTFJQLSZOM7OKJDU84QFXXYRA,AQMLJYUQCSG22,3LYA37P8IZODMWDUEA1Y95GZ2HOBK5,83YL4,83YL4,3LYA37P8IZODMWDUEA1Y95GZ2HOBK5,3LYA37P8IZODMWDUEA1Y95GZ2HOBK5,338054,338054,2,0.04,"""",1140.3000001907349,0,stim1,1,Clockwise,false,"""",0.01,60,"""","""","2021-12-31 03:55:25",76.168.193.216,"Mozilla/5.0 (Windows NT 10.0; Win64; x64) AppleWebKit/537.36 (KHTML, like Gecko) Chrome/96.0.4664.110 Safari/537.36",WebKit,Chrome,96.0.4664.110,Windows,10.0,ac0f2dffeffaa78d35a552e03d03f0a8
21,2,"""",test_procedure,confidence_rating,html-slider-response,101,300085,0.0-11.0-0.0-2.19,3PKVGQTFJQLSZOM7OKJDU84QFXXYRA,AQMLJYUQCSG22,3LYA37P8IZODMWDUEA1Y95GZ2HOBK5,83YL4,83YL4,3LYA37P8IZODMWDUEA1Y95GZ2HOBK5,3LYA37P8IZODMWDUEA1Y95GZ2HOBK5,338054,338054,2,0.04,"""",2441.2000000476837,28,"<div id=""message-div""><p>How confident are you that your clockwise/counter-clockwise response just now was accurate? Please rate your confidence on the slider bar below.</p></div>","""","""","""",50,"""","""","""",28,"2021-12-31 03:55:25",76.168.193.216,"Mozilla/5.0 (Windows NT 10.0; Win64; x64) AppleWebKit/537.36 (KHTML, like Gecko) Chrome/96.0.4664.110 Safari/537.36",WebKit,Chrome,96.0.4664.110,Windows,10.0,ac0f2dffeffaa78d35a552e03d03f0a8
21,2,"""",test_procedure,fixation,html-keyboard-response,102,300589,0.0-11.0-0.0-0.20,3PKVGQTFJQLSZOM7OKJDU84QFXXYRA,AQMLJYUQCSG22,3LYA37P8IZODMWDUEA1Y95GZ2HOBK5,83YL4,83YL4,3LYA37P8IZODMWDUEA1Y95GZ2HOBK5,3LYA37P8IZODMWDUEA1Y95GZ2HOBK5,338054,338054,2,0.04,"""",null,null,"<div class = fixationbox><div class = fixation>+</div></div>","""","""","""","""","""","""","""","""","2021-12-31 03:55:25",76.168.193.216,"Mozilla/5.0 (Windows NT 10.0; Win64; x64) AppleWebKit/537.36 (KHTML, like Gecko) Chrome/96.0.4664.110 Safari/537.36",WebKit,Chrome,96.0.4664.110,Windows,10.0,ac0f2dffeffaa78d35a552e03d03f0a8
21,2,"""",test_procedure,stim_test,canvas-button-response,103,301961,0.0-11.0-0.0-1.20,3PKVGQTFJQLSZOM7OKJDU84QFXXYRA,AQMLJYUQCSG22,3LYA37P8IZODMWDUEA1Y95GZ2HOBK5,83YL4,83YL4,3LYA37P8IZODMWDUEA1Y95GZ2HOBK5,3LYA37P8IZODMWDUEA1Y95GZ2HOBK5,338054,338054,2,0.04,"""",1338.7999999523163,0,catchStim2,0,Counter-clockwise,true,"""",0.01,120,0.6,"""","2021-12-31 03:55:25",76.168.193.216,"Mozilla/5.0 (Windows NT 10.0; Win64; x64) AppleWebKit/537.36 (KHTML, like Gecko) Chrome/96.0.4664.110 Safari/537.36",WebKit,Chrome,96.0.4664.110,Windows,10.0,ac0f2dffeffaa78d35a552e03d03f0a8
21,2,"""",test_procedure,confidence_rating,html-slider-response,104,303835,0.0-11.0-0.0-2.20,3PKVGQTFJQLSZOM7OKJDU84QFXXYRA,AQMLJYUQCSG22,3LYA37P8IZODMWDUEA1Y95GZ2HOBK5,83YL4,83YL4,3LYA37P8IZODMWDUEA1Y95GZ2HOBK5,3LYA37P8IZODMWDUEA1Y95GZ2HOBK5,338054,338054,2,0.04,"""",1873.2000000476837,97,"<div id=""message-div""><p>How confident are you that your clockwise/counter-clockwise response just now was accurate? Please rate your confidence on the slider bar below.</p></div>","""","""","""",50,"""","""","""",97,"2021-12-31 03:55:25",76.168.193.216,"Mozilla/5.0 (Windows NT 10.0; Win64; x64) AppleWebKit/537.36 (KHTML, like Gecko) Chrome/96.0.4664.110 Safari/537.36",WebKit,Chrome,96.0.4664.110,Windows,10.0,ac0f2dffeffaa78d35a552e03d03f0a8
21,2,"""",test_procedure,fixation,html-keyboard-response,105,304350,0.0-11.0-0.0-0.21,3PKVGQTFJQLSZOM7OKJDU84QFXXYRA,AQMLJYUQCSG22,3LYA37P8IZODMWDUEA1Y95GZ2HOBK5,83YL4,83YL4,3LYA37P8IZODMWDUEA1Y95GZ2HOBK5,3LYA37P8IZODMWDUEA1Y95GZ2HOBK5,338054,338054,2,0.04,"""",null,null,"<div class = fixationbox><div class = fixation>+</div></div>","""","""","""","""","""","""","""","""","2021-12-31 03:55:25",76.168.193.216,"Mozilla/5.0 (Windows NT 10.0; Win64; x64) AppleWebKit/537.36 (KHTML, like Gecko) Chrome/96.0.4664.110 Safari/537.36",WebKit,Chrome,96.0.4664.110,Windows,10.0,ac0f2dffeffaa78d35a552e03d03f0a8
21,2,"""",test_procedure,stim_test,canvas-button-response,106,305864,0.0-11.0-0.0-1.21,3PKVGQTFJQLSZOM7OKJDU84QFXXYRA,AQMLJYUQCSG22,3LYA37P8IZODMWDUEA1Y95GZ2HOBK5,83YL4,83YL4,3LYA37P8IZODMWDUEA1Y95GZ2HOBK5,3LYA37P8IZODMWDUEA1Y95GZ2HOBK5,338054,338054,2,0.04,"""",1481.0999999046326,1,stim2,0,Counter-clockwise,false,"""",0.01,120,"""","""","2021-12-31 03:55:25",76.168.193.216,"Mozilla/5.0 (Windows NT 10.0; Win64; x64) AppleWebKit/537.36 (KHTML, like Gecko) Chrome/96.0.4664.110 Safari/537.36",WebKit,Chrome,96.0.4664.110,Windows,10.0,ac0f2dffeffaa78d35a552e03d03f0a8
21,2,"""",test_procedure,confidence_rating,html-slider-response,107,307509,0.0-11.0-0.0-2.21,3PKVGQTFJQLSZOM7OKJDU84QFXXYRA,AQMLJYUQCSG22,3LYA37P8IZODMWDUEA1Y95GZ2HOBK5,83YL4,83YL4,3LYA37P8IZODMWDUEA1Y95GZ2HOBK5,3LYA37P8IZODMWDUEA1Y95GZ2HOBK5,338054,338054,2,0.04,"""",1645.1000001430511,59,"<div id=""message-div""><p>How confident are you that your clockwise/counter-clockwise response just now was accurate? Please rate your confidence on the slider bar below.</p></div>","""","""","""",50,"""","""","""",59,"2021-12-31 03:55:25",76.168.193.216,"Mozilla/5.0 (Windows NT 10.0; Win64; x64) AppleWebKit/537.36 (KHTML, like Gecko) Chrome/96.0.4664.110 Safari/537.36",WebKit,Chrome,96.0.4664.110,Windows,10.0,ac0f2dffeffaa78d35a552e03d03f0a8
21,2,"""",test_procedure,fixation,html-keyboard-response,108,308010,0.0-11.0-0.0-0.22,3PKVGQTFJQLSZOM7OKJDU84QFXXYRA,AQMLJYUQCSG22,3LYA37P8IZODMWDUEA1Y95GZ2HOBK5,83YL4,83YL4,3LYA37P8IZODMWDUEA1Y95GZ2HOBK5,3LYA37P8IZODMWDUEA1Y95GZ2HOBK5,338054,338054,2,0.04,"""",null,null,"<div class = fixationbox><div class = fixation>+</div></div>","""","""","""","""","""","""","""","""","2021-12-31 03:55:25",76.168.193.216,"Mozilla/5.0 (Windows NT 10.0; Win64; x64) AppleWebKit/537.36 (KHTML, like Gecko) Chrome/96.0.4664.110 Safari/537.36",WebKit,Chrome,96.0.4664.110,Windows,10.0,ac0f2dffeffaa78d35a552e03d03f0a8
21,2,"""",test_procedure,stim_test,canvas-button-response,109,309331,0.0-11.0-0.0-1.22,3PKVGQTFJQLSZOM7OKJDU84QFXXYRA,AQMLJYUQCSG22,3LYA37P8IZODMWDUEA1Y95GZ2HOBK5,83YL4,83YL4,3LYA37P8IZODMWDUEA1Y95GZ2HOBK5,3LYA37P8IZODMWDUEA1Y95GZ2HOBK5,338054,338054,2,0.04,"""",1287.7000000476837,1,stim4,0,Counter-clockwise,false,"""",0.3,120,"""","""","2021-12-31 03:55:25",76.168.193.216,"Mozilla/5.0 (Windows NT 10.0; Win64; x64) AppleWebKit/537.36 (KHTML, like Gecko) Chrome/96.0.4664.110 Safari/537.36",WebKit,Chrome,96.0.4664.110,Windows,10.0,ac0f2dffeffaa78d35a552e03d03f0a8
21,2,"""",test_procedure,confidence_rating,html-slider-response,110,310917,0.0-11.0-0.0-2.22,3PKVGQTFJQLSZOM7OKJDU84QFXXYRA,AQMLJYUQCSG22,3LYA37P8IZODMWDUEA1Y95GZ2HOBK5,83YL4,83YL4,3LYA37P8IZODMWDUEA1Y95GZ2HOBK5,3LYA37P8IZODMWDUEA1Y95GZ2HOBK5,338054,338054,2,0.04,"""",1585.0999999046326,78,"<div id=""message-div""><p>How confident are you that your clockwise/counter-clockwise response just now was accurate? Please rate your confidence on the slider bar below.</p></div>","""","""","""",50,"""","""","""",78,"2021-12-31 03:55:25",76.168.193.216,"Mozilla/5.0 (Windows NT 10.0; Win64; x64) AppleWebKit/537.36 (KHTML, like Gecko) Chrome/96.0.4664.110 Safari/537.36",WebKit,Chrome,96.0.4664.110,Windows,10.0,ac0f2dffeffaa78d35a552e03d03f0a8
21,2,"""",test_procedure,fixation,html-keyboard-response,111,311421,0.0-11.0-0.0-0.23,3PKVGQTFJQLSZOM7OKJDU84QFXXYRA,AQMLJYUQCSG22,3LYA37P8IZODMWDUEA1Y95GZ2HOBK5,83YL4,83YL4,3LYA37P8IZODMWDUEA1Y95GZ2HOBK5,3LYA37P8IZODMWDUEA1Y95GZ2HOBK5,338054,338054,2,0.04,"""",null,null,"<div class = fixationbox><div class = fixation>+</div></div>","""","""","""","""","""","""","""","""","2021-12-31 03:55:25",76.168.193.216,"Mozilla/5.0 (Windows NT 10.0; Win64; x64) AppleWebKit/537.36 (KHTML, like Gecko) Chrome/96.0.4664.110 Safari/537.36",WebKit,Chrome,96.0.4664.110,Windows,10.0,ac0f2dffeffaa78d35a552e03d03f0a8
21,2,"""",test_procedure,stim_test,canvas-button-response,112,313081,0.0-11.0-0.0-1.23,3PKVGQTFJQLSZOM7OKJDU84QFXXYRA,AQMLJYUQCSG22,3LYA37P8IZODMWDUEA1Y95GZ2HOBK5,83YL4,83YL4,3LYA37P8IZODMWDUEA1Y95GZ2HOBK5,3LYA37P8IZODMWDUEA1Y95GZ2HOBK5,338054,338054,2,0.04,"""",1628.3000001907349,1,stim1,1,Clockwise,true,"""",0.01,60,"""","""","2021-12-31 03:55:25",76.168.193.216,"Mozilla/5.0 (Windows NT 10.0; Win64; x64) AppleWebKit/537.36 (KHTML, like Gecko) Chrome/96.0.4664.110 Safari/537.36",WebKit,Chrome,96.0.4664.110,Windows,10.0,ac0f2dffeffaa78d35a552e03d03f0a8
21,2,"""",test_procedure,confidence_rating,html-slider-response,113,314355,0.0-11.0-0.0-2.23,3PKVGQTFJQLSZOM7OKJDU84QFXXYRA,AQMLJYUQCSG22,3LYA37P8IZODMWDUEA1Y95GZ2HOBK5,83YL4,83YL4,3LYA37P8IZODMWDUEA1Y95GZ2HOBK5,3LYA37P8IZODMWDUEA1Y95GZ2HOBK5,338054,338054,2,0.04,"""",1273.2000000476837,94,"<div id=""message-div""><p>How confident are you that your clockwise/counter-clockwise response just now was accurate? Please rate your confidence on the slider bar below.</p></div>","""","""","""",50,"""","""","""",94,"2021-12-31 03:55:25",76.168.193.216,"Mozilla/5.0 (Windows NT 10.0; Win64; x64) AppleWebKit/537.36 (KHTML, like Gecko) Chrome/96.0.4664.110 Safari/537.36",WebKit,Chrome,96.0.4664.110,Windows,10.0,ac0f2dffeffaa78d35a552e03d03f0a8
21,2,"""",test_procedure,rest_block,html-button-response,114,318924,0.0-11.0-0.0-3.23-0.23,3PKVGQTFJQLSZOM7OKJDU84QFXXYRA,AQMLJYUQCSG22,3LYA37P8IZODMWDUEA1Y95GZ2HOBK5,83YL4,83YL4,3LYA37P8IZODMWDUEA1Y95GZ2HOBK5,3LYA37P8IZODMWDUEA1Y95GZ2HOBK5,338054,338054,2,0.04,"""",4566.900000095367,0,"[""<p>You responded correctly on 62.50% of the trials in the previous section.</p><p>Time to take a break!</p><p>Once you're ready, press the \"Continue\" button to continue.</p>""]","""","""","""","""","""","""","""","""","2021-12-31 03:55:25",76.168.193.216,"Mozilla/5.0 (Windows NT 10.0; Win64; x64) AppleWebKit/537.36 (KHTML, like Gecko) Chrome/96.0.4664.110 Safari/537.36",WebKit,Chrome,96.0.4664.110,Windows,10.0,ac0f2dffeffaa78d35a552e03d03f0a8
21,2,"""",test_procedure,fixation,html-keyboard-response,115,319428,0.0-11.0-0.1-0.24,3PKVGQTFJQLSZOM7OKJDU84QFXXYRA,AQMLJYUQCSG22,3LYA37P8IZODMWDUEA1Y95GZ2HOBK5,83YL4,83YL4,3LYA37P8IZODMWDUEA1Y95GZ2HOBK5,3LYA37P8IZODMWDUEA1Y95GZ2HOBK5,338054,338054,2,0.04,"""",null,null,"<div class = fixationbox><div class = fixation>+</div></div>","""","""","""","""","""","""","""","""","2021-12-31 03:55:25",76.168.193.216,"Mozilla/5.0 (Windows NT 10.0; Win64; x64) AppleWebKit/537.36 (KHTML, like Gecko) Chrome/96.0.4664.110 Safari/537.36",WebKit,Chrome,96.0.4664.110,Windows,10.0,ac0f2dffeffaa78d35a552e03d03f0a8
21,2,"""",test_procedure,stim_test,canvas-button-response,116,320991,0.0-11.0-0.1-1.24,3PKVGQTFJQLSZOM7OKJDU84QFXXYRA,AQMLJYUQCSG22,3LYA37P8IZODMWDUEA1Y95GZ2HOBK5,83YL4,83YL4,3LYA37P8IZODMWDUEA1Y95GZ2HOBK5,3LYA37P8IZODMWDUEA1Y95GZ2HOBK5,338054,338054,2,0.04,"""",1531,1,catchStim4,0,Counter-clockwise,false,"""",0.01,120,0.001,"""","2021-12-31 03:55:25",76.168.193.216,"Mozilla/5.0 (Windows NT 10.0; Win64; x64) AppleWebKit/537.36 (KHTML, like Gecko) Chrome/96.0.4664.110 Safari/537.36",WebKit,Chrome,96.0.4664.110,Windows,10.0,ac0f2dffeffaa78d35a552e03d03f0a8
21,2,"""",test_procedure,confidence_rating,html-slider-response,117,322290,0.0-11.0-0.1-2.24,3PKVGQTFJQLSZOM7OKJDU84QFXXYRA,AQMLJYUQCSG22,3LYA37P8IZODMWDUEA1Y95GZ2HOBK5,83YL4,83YL4,3LYA37P8IZODMWDUEA1Y95GZ2HOBK5,3LYA37P8IZODMWDUEA1Y95GZ2HOBK5,338054,338054,2,0.04,"""",1297.2999999523163,68,"<div id=""message-div""><p>How confident are you that your clockwise/counter-clockwise response just now was accurate? Please rate your confidence on the slider bar below.</p></div>","""","""","""",50,"""","""","""",68,"2021-12-31 03:55:25",76.168.193.216,"Mozilla/5.0 (Windows NT 10.0; Win64; x64) AppleWebKit/537.36 (KHTML, like Gecko) Chrome/96.0.4664.110 Safari/537.36",WebKit,Chrome,96.0.4664.110,Windows,10.0,ac0f2dffeffaa78d35a552e03d03f0a8
21,2,"""",test_procedure,fixation,html-keyboard-response,118,322792,0.0-11.0-0.1-0.25,3PKVGQTFJQLSZOM7OKJDU84QFXXYRA,AQMLJYUQCSG22,3LYA37P8IZODMWDUEA1Y95GZ2HOBK5,83YL4,83YL4,3LYA37P8IZODMWDUEA1Y95GZ2HOBK5,3LYA37P8IZODMWDUEA1Y95GZ2HOBK5,338054,338054,2,0.04,"""",null,null,"<div class = fixationbox><div class = fixation>+</div></div>","""","""","""","""","""","""","""","""","2021-12-31 03:55:25",76.168.193.216,"Mozilla/5.0 (Windows NT 10.0; Win64; x64) AppleWebKit/537.36 (KHTML, like Gecko) Chrome/96.0.4664.110 Safari/537.36",WebKit,Chrome,96.0.4664.110,Windows,10.0,ac0f2dffeffaa78d35a552e03d03f0a8
21,2,"""",test_procedure,stim_test,canvas-button-response,119,323995,0.0-11.0-0.1-1.25,3PKVGQTFJQLSZOM7OKJDU84QFXXYRA,AQMLJYUQCSG22,3LYA37P8IZODMWDUEA1Y95GZ2HOBK5,83YL4,83YL4,3LYA37P8IZODMWDUEA1Y95GZ2HOBK5,3LYA37P8IZODMWDUEA1Y95GZ2HOBK5,338054,338054,2,0.04,"""",1171.9000000953674,1,catchStim1,1,Clockwise,true,"""",0.01,60,0.6,"""","2021-12-31 03:55:25",76.168.193.216,"Mozilla/5.0 (Windows NT 10.0; Win64; x64) AppleWebKit/537.36 (KHTML, like Gecko) Chrome/96.0.4664.110 Safari/537.36",WebKit,Chrome,96.0.4664.110,Windows,10.0,ac0f2dffeffaa78d35a552e03d03f0a8
21,2,"""",test_procedure,confidence_rating,html-slider-response,120,325605,0.0-11.0-0.1-2.25,3PKVGQTFJQLSZOM7OKJDU84QFXXYRA,AQMLJYUQCSG22,3LYA37P8IZODMWDUEA1Y95GZ2HOBK5,83YL4,83YL4,3LYA37P8IZODMWDUEA1Y95GZ2HOBK5,3LYA37P8IZODMWDUEA1Y95GZ2HOBK5,338054,338054,2,0.04,"""",1609.2000000476837,85,"<div id=""message-div""><p>How confident are you that your clockwise/counter-clockwise response just now was accurate? Please rate your confidence on the slider bar below.</p></div>","""","""","""",50,"""","""","""",85,"2021-12-31 03:55:25",76.168.193.216,"Mozilla/5.0 (Windows NT 10.0; Win64; x64) AppleWebKit/537.36 (KHTML, like Gecko) Chrome/96.0.4664.110 Safari/537.36",WebKit,Chrome,96.0.4664.110,Windows,10.0,ac0f2dffeffaa78d35a552e03d03f0a8
21,2,"""",test_procedure,fixation,html-keyboard-response,121,326109,0.0-11.0-0.1-0.26,3PKVGQTFJQLSZOM7OKJDU84QFXXYRA,AQMLJYUQCSG22,3LYA37P8IZODMWDUEA1Y95GZ2HOBK5,83YL4,83YL4,3LYA37P8IZODMWDUEA1Y95GZ2HOBK5,3LYA37P8IZODMWDUEA1Y95GZ2HOBK5,338054,338054,2,0.04,"""",null,null,"<div class = fixationbox><div class = fixation>+</div></div>","""","""","""","""","""","""","""","""","2021-12-31 03:55:25",76.168.193.216,"Mozilla/5.0 (Windows NT 10.0; Win64; x64) AppleWebKit/537.36 (KHTML, like Gecko) Chrome/96.0.4664.110 Safari/537.36",WebKit,Chrome,96.0.4664.110,Windows,10.0,ac0f2dffeffaa78d35a552e03d03f0a8
21,2,"""",test_procedure,stim_test,canvas-button-response,122,327175,0.0-11.0-0.1-1.26,3PKVGQTFJQLSZOM7OKJDU84QFXXYRA,AQMLJYUQCSG22,3LYA37P8IZODMWDUEA1Y95GZ2HOBK5,83YL4,83YL4,3LYA37P8IZODMWDUEA1Y95GZ2HOBK5,3LYA37P8IZODMWDUEA1Y95GZ2HOBK5,338054,338054,2,0.04,"""",1033,0,stim2,0,Counter-clockwise,true,"""",0.01,120,"""","""","2021-12-31 03:55:25",76.168.193.216,"Mozilla/5.0 (Windows NT 10.0; Win64; x64) AppleWebKit/537.36 (KHTML, like Gecko) Chrome/96.0.4664.110 Safari/537.36",WebKit,Chrome,96.0.4664.110,Windows,10.0,ac0f2dffeffaa78d35a552e03d03f0a8
21,2,"""",test_procedure,confidence_rating,html-slider-response,123,328785,0.0-11.0-0.1-2.26,3PKVGQTFJQLSZOM7OKJDU84QFXXYRA,AQMLJYUQCSG22,3LYA37P8IZODMWDUEA1Y95GZ2HOBK5,83YL4,83YL4,3LYA37P8IZODMWDUEA1Y95GZ2HOBK5,3LYA37P8IZODMWDUEA1Y95GZ2HOBK5,338054,338054,2,0.04,"""",1609.0999999046326,73,"<div id=""message-div""><p>How confident are you that your clockwise/counter-clockwise response just now was accurate? Please rate your confidence on the slider bar below.</p></div>","""","""","""",50,"""","""","""",73,"2021-12-31 03:55:25",76.168.193.216,"Mozilla/5.0 (Windows NT 10.0; Win64; x64) AppleWebKit/537.36 (KHTML, like Gecko) Chrome/96.0.4664.110 Safari/537.36",WebKit,Chrome,96.0.4664.110,Windows,10.0,ac0f2dffeffaa78d35a552e03d03f0a8
21,2,"""",test_procedure,fixation,html-keyboard-response,124,329286,0.0-11.0-0.1-0.27,3PKVGQTFJQLSZOM7OKJDU84QFXXYRA,AQMLJYUQCSG22,3LYA37P8IZODMWDUEA1Y95GZ2HOBK5,83YL4,83YL4,3LYA37P8IZODMWDUEA1Y95GZ2HOBK5,3LYA37P8IZODMWDUEA1Y95GZ2HOBK5,338054,338054,2,0.04,"""",null,null,"<div class = fixationbox><div class = fixation>+</div></div>","""","""","""","""","""","""","""","""","2021-12-31 03:55:25",76.168.193.216,"Mozilla/5.0 (Windows NT 10.0; Win64; x64) AppleWebKit/537.36 (KHTML, like Gecko) Chrome/96.0.4664.110 Safari/537.36",WebKit,Chrome,96.0.4664.110,Windows,10.0,ac0f2dffeffaa78d35a552e03d03f0a8
21,2,"""",test_procedure,stim_test,canvas-button-response,125,330323,0.0-11.0-0.1-1.27,3PKVGQTFJQLSZOM7OKJDU84QFXXYRA,AQMLJYUQCSG22,3LYA37P8IZODMWDUEA1Y95GZ2HOBK5,83YL4,83YL4,3LYA37P8IZODMWDUEA1Y95GZ2HOBK5,3LYA37P8IZODMWDUEA1Y95GZ2HOBK5,338054,338054,2,0.04,"""",1004.5999999046326,1,stim4,0,Counter-clockwise,false,"""",0.3,120,"""","""","2021-12-31 03:55:25",76.168.193.216,"Mozilla/5.0 (Windows NT 10.0; Win64; x64) AppleWebKit/537.36 (KHTML, like Gecko) Chrome/96.0.4664.110 Safari/537.36",WebKit,Chrome,96.0.4664.110,Windows,10.0,ac0f2dffeffaa78d35a552e03d03f0a8
21,2,"""",test_procedure,confidence_rating,html-slider-response,126,331685,0.0-11.0-0.1-2.27,3PKVGQTFJQLSZOM7OKJDU84QFXXYRA,AQMLJYUQCSG22,3LYA37P8IZODMWDUEA1Y95GZ2HOBK5,83YL4,83YL4,3LYA37P8IZODMWDUEA1Y95GZ2HOBK5,3LYA37P8IZODMWDUEA1Y95GZ2HOBK5,338054,338054,2,0.04,"""",1361.3000001907349,66,"<div id=""message-div""><p>How confident are you that your clockwise/counter-clockwise response just now was accurate? Please rate your confidence on the slider bar below.</p></div>","""","""","""",50,"""","""","""",66,"2021-12-31 03:55:25",76.168.193.216,"Mozilla/5.0 (Windows NT 10.0; Win64; x64) AppleWebKit/537.36 (KHTML, like Gecko) Chrome/96.0.4664.110 Safari/537.36",WebKit,Chrome,96.0.4664.110,Windows,10.0,ac0f2dffeffaa78d35a552e03d03f0a8
21,2,"""",test_procedure,fixation,html-keyboard-response,127,332192,0.0-11.0-0.1-0.28,3PKVGQTFJQLSZOM7OKJDU84QFXXYRA,AQMLJYUQCSG22,3LYA37P8IZODMWDUEA1Y95GZ2HOBK5,83YL4,83YL4,3LYA37P8IZODMWDUEA1Y95GZ2HOBK5,3LYA37P8IZODMWDUEA1Y95GZ2HOBK5,338054,338054,2,0.04,"""",null,null,"<div class = fixationbox><div class = fixation>+</div></div>","""","""","""","""","""","""","""","""","2021-12-31 03:55:25",76.168.193.216,"Mozilla/5.0 (Windows NT 10.0; Win64; x64) AppleWebKit/537.36 (KHTML, like Gecko) Chrome/96.0.4664.110 Safari/537.36",WebKit,Chrome,96.0.4664.110,Windows,10.0,ac0f2dffeffaa78d35a552e03d03f0a8
21,2,"""",test_procedure,stim_test,canvas-button-response,128,333303,0.0-11.0-0.1-1.28,3PKVGQTFJQLSZOM7OKJDU84QFXXYRA,AQMLJYUQCSG22,3LYA37P8IZODMWDUEA1Y95GZ2HOBK5,83YL4,83YL4,3LYA37P8IZODMWDUEA1Y95GZ2HOBK5,3LYA37P8IZODMWDUEA1Y95GZ2HOBK5,338054,338054,2,0.04,"""",1079,1,stim4,0,Counter-clockwise,false,"""",0.3,120,"""","""","2021-12-31 03:55:25",76.168.193.216,"Mozilla/5.0 (Windows NT 10.0; Win64; x64) AppleWebKit/537.36 (KHTML, like Gecko) Chrome/96.0.4664.110 Safari/537.36",WebKit,Chrome,96.0.4664.110,Windows,10.0,ac0f2dffeffaa78d35a552e03d03f0a8
21,2,"""",test_procedure,confidence_rating,html-slider-response,129,334537,0.0-11.0-0.1-2.28,3PKVGQTFJQLSZOM7OKJDU84QFXXYRA,AQMLJYUQCSG22,3LYA37P8IZODMWDUEA1Y95GZ2HOBK5,83YL4,83YL4,3LYA37P8IZODMWDUEA1Y95GZ2HOBK5,3LYA37P8IZODMWDUEA1Y95GZ2HOBK5,338054,338054,2,0.04,"""",1233,51,"<div id=""message-div""><p>How confident are you that your clockwise/counter-clockwise response just now was accurate? Please rate your confidence on the slider bar below.</p></div>","""","""","""",50,"""","""","""",51,"2021-12-31 03:55:25",76.168.193.216,"Mozilla/5.0 (Windows NT 10.0; Win64; x64) AppleWebKit/537.36 (KHTML, like Gecko) Chrome/96.0.4664.110 Safari/537.36",WebKit,Chrome,96.0.4664.110,Windows,10.0,ac0f2dffeffaa78d35a552e03d03f0a8
21,2,"""",test_procedure,fixation,html-keyboard-response,130,335038,0.0-11.0-0.1-0.29,3PKVGQTFJQLSZOM7OKJDU84QFXXYRA,AQMLJYUQCSG22,3LYA37P8IZODMWDUEA1Y95GZ2HOBK5,83YL4,83YL4,3LYA37P8IZODMWDUEA1Y95GZ2HOBK5,3LYA37P8IZODMWDUEA1Y95GZ2HOBK5,338054,338054,2,0.04,"""",null,null,"<div class = fixationbox><div class = fixation>+</div></div>","""","""","""","""","""","""","""","""","2021-12-31 03:55:25",76.168.193.216,"Mozilla/5.0 (Windows NT 10.0; Win64; x64) AppleWebKit/537.36 (KHTML, like Gecko) Chrome/96.0.4664.110 Safari/537.36",WebKit,Chrome,96.0.4664.110,Windows,10.0,ac0f2dffeffaa78d35a552e03d03f0a8
21,2,"""",test_procedure,stim_test,canvas-button-response,131,336155,0.0-11.0-0.1-1.29,3PKVGQTFJQLSZOM7OKJDU84QFXXYRA,AQMLJYUQCSG22,3LYA37P8IZODMWDUEA1Y95GZ2HOBK5,83YL4,83YL4,3LYA37P8IZODMWDUEA1Y95GZ2HOBK5,3LYA37P8IZODMWDUEA1Y95GZ2HOBK5,338054,338054,2,0.04,"""",1085.5999999046326,1,stim3,1,Clockwise,true,"""",0.3,60,"""","""","2021-12-31 03:55:25",76.168.193.216,"Mozilla/5.0 (Windows NT 10.0; Win64; x64) AppleWebKit/537.36 (KHTML, like Gecko) Chrome/96.0.4664.110 Safari/537.36",WebKit,Chrome,96.0.4664.110,Windows,10.0,ac0f2dffeffaa78d35a552e03d03f0a8
21,2,"""",test_procedure,confidence_rating,html-slider-response,132,337886,0.0-11.0-0.1-2.29,3PKVGQTFJQLSZOM7OKJDU84QFXXYRA,AQMLJYUQCSG22,3LYA37P8IZODMWDUEA1Y95GZ2HOBK5,83YL4,83YL4,3LYA37P8IZODMWDUEA1Y95GZ2HOBK5,3LYA37P8IZODMWDUEA1Y95GZ2HOBK5,338054,338054,2,0.04,"""",1729.2000000476837,50,"<div id=""message-div""><p>How confident are you that your clockwise/counter-clockwise response just now was accurate? Please rate your confidence on the slider bar below.</p></div>","""","""","""",50,"""","""","""",50,"2021-12-31 03:55:25",76.168.193.216,"Mozilla/5.0 (Windows NT 10.0; Win64; x64) AppleWebKit/537.36 (KHTML, like Gecko) Chrome/96.0.4664.110 Safari/537.36",WebKit,Chrome,96.0.4664.110,Windows,10.0,ac0f2dffeffaa78d35a552e03d03f0a8
21,2,"""",test_procedure,fixation,html-keyboard-response,133,338389,0.0-11.0-0.1-0.30,3PKVGQTFJQLSZOM7OKJDU84QFXXYRA,AQMLJYUQCSG22,3LYA37P8IZODMWDUEA1Y95GZ2HOBK5,83YL4,83YL4,3LYA37P8IZODMWDUEA1Y95GZ2HOBK5,3LYA37P8IZODMWDUEA1Y95GZ2HOBK5,338054,338054,2,0.04,"""",null,null,"<div class = fixationbox><div class = fixation>+</div></div>","""","""","""","""","""","""","""","""","2021-12-31 03:55:25",76.168.193.216,"Mozilla/5.0 (Windows NT 10.0; Win64; x64) AppleWebKit/537.36 (KHTML, like Gecko) Chrome/96.0.4664.110 Safari/537.36",WebKit,Chrome,96.0.4664.110,Windows,10.0,ac0f2dffeffaa78d35a552e03d03f0a8
21,2,"""",test_procedure,stim_test,canvas-button-response,134,339606,0.0-11.0-0.1-1.30,3PKVGQTFJQLSZOM7OKJDU84QFXXYRA,AQMLJYUQCSG22,3LYA37P8IZODMWDUEA1Y95GZ2HOBK5,83YL4,83YL4,3LYA37P8IZODMWDUEA1Y95GZ2HOBK5,3LYA37P8IZODMWDUEA1Y95GZ2HOBK5,338054,338054,2,0.04,"""",1184.1000001430511,0,stim2,0,Counter-clockwise,true,"""",0.01,120,"""","""","2021-12-31 03:55:25",76.168.193.216,"Mozilla/5.0 (Windows NT 10.0; Win64; x64) AppleWebKit/537.36 (KHTML, like Gecko) Chrome/96.0.4664.110 Safari/537.36",WebKit,Chrome,96.0.4664.110,Windows,10.0,ac0f2dffeffaa78d35a552e03d03f0a8
21,2,"""",test_procedure,confidence_rating,html-slider-response,135,341332,0.0-11.0-0.1-2.30,3PKVGQTFJQLSZOM7OKJDU84QFXXYRA,AQMLJYUQCSG22,3LYA37P8IZODMWDUEA1Y95GZ2HOBK5,83YL4,83YL4,3LYA37P8IZODMWDUEA1Y95GZ2HOBK5,3LYA37P8IZODMWDUEA1Y95GZ2HOBK5,338054,338054,2,0.04,"""",1725.3000001907349,69,"<div id=""message-div""><p>How confident are you that your clockwise/counter-clockwise response just now was accurate? Please rate your confidence on the slider bar below.</p></div>","""","""","""",50,"""","""","""",69,"2021-12-31 03:55:25",76.168.193.216,"Mozilla/5.0 (Windows NT 10.0; Win64; x64) AppleWebKit/537.36 (KHTML, like Gecko) Chrome/96.0.4664.110 Safari/537.36",WebKit,Chrome,96.0.4664.110,Windows,10.0,ac0f2dffeffaa78d35a552e03d03f0a8
21,2,"""",test_procedure,fixation,html-keyboard-response,136,341833,0.0-11.0-0.1-0.31,3PKVGQTFJQLSZOM7OKJDU84QFXXYRA,AQMLJYUQCSG22,3LYA37P8IZODMWDUEA1Y95GZ2HOBK5,83YL4,83YL4,3LYA37P8IZODMWDUEA1Y95GZ2HOBK5,3LYA37P8IZODMWDUEA1Y95GZ2HOBK5,338054,338054,2,0.04,"""",null,null,"<div class = fixationbox><div class = fixation>+</div></div>","""","""","""","""","""","""","""","""","2021-12-31 03:55:25",76.168.193.216,"Mozilla/5.0 (Windows NT 10.0; Win64; x64) AppleWebKit/537.36 (KHTML, like Gecko) Chrome/96.0.4664.110 Safari/537.36",WebKit,Chrome,96.0.4664.110,Windows,10.0,ac0f2dffeffaa78d35a552e03d03f0a8
21,2,"""",test_procedure,stim_test,canvas-button-response,137,342774,0.0-11.0-0.1-1.31,3PKVGQTFJQLSZOM7OKJDU84QFXXYRA,AQMLJYUQCSG22,3LYA37P8IZODMWDUEA1Y95GZ2HOBK5,83YL4,83YL4,3LYA37P8IZODMWDUEA1Y95GZ2HOBK5,3LYA37P8IZODMWDUEA1Y95GZ2HOBK5,338054,338054,2,0.04,"""",908.7000000476837,1,stim1,1,Clockwise,true,"""",0.01,60,"""","""","2021-12-31 03:55:25",76.168.193.216,"Mozilla/5.0 (Windows NT 10.0; Win64; x64) AppleWebKit/537.36 (KHTML, like Gecko) Chrome/96.0.4664.110 Safari/537.36",WebKit,Chrome,96.0.4664.110,Windows,10.0,ac0f2dffeffaa78d35a552e03d03f0a8
21,2,"""",test_procedure,confidence_rating,html-slider-response,138,344136,0.0-11.0-0.1-2.31,3PKVGQTFJQLSZOM7OKJDU84QFXXYRA,AQMLJYUQCSG22,3LYA37P8IZODMWDUEA1Y95GZ2HOBK5,83YL4,83YL4,3LYA37P8IZODMWDUEA1Y95GZ2HOBK5,3LYA37P8IZODMWDUEA1Y95GZ2HOBK5,338054,338054,2,0.04,"""",1361.0999999046326,71,"<div id=""message-div""><p>How confident are you that your clockwise/counter-clockwise response just now was accurate? Please rate your confidence on the slider bar below.</p></div>","""","""","""",50,"""","""","""",71,"2021-12-31 03:55:25",76.168.193.216,"Mozilla/5.0 (Windows NT 10.0; Win64; x64) AppleWebKit/537.36 (KHTML, like Gecko) Chrome/96.0.4664.110 Safari/537.36",WebKit,Chrome,96.0.4664.110,Windows,10.0,ac0f2dffeffaa78d35a552e03d03f0a8
21,2,"""",test_procedure,fixation,html-keyboard-response,139,344637,0.0-11.0-0.1-0.32,3PKVGQTFJQLSZOM7OKJDU84QFXXYRA,AQMLJYUQCSG22,3LYA37P8IZODMWDUEA1Y95GZ2HOBK5,83YL4,83YL4,3LYA37P8IZODMWDUEA1Y95GZ2HOBK5,3LYA37P8IZODMWDUEA1Y95GZ2HOBK5,338054,338054,2,0.04,"""",null,null,"<div class = fixationbox><div class = fixation>+</div></div>","""","""","""","""","""","""","""","""","2021-12-31 03:55:25",76.168.193.216,"Mozilla/5.0 (Windows NT 10.0; Win64; x64) AppleWebKit/537.36 (KHTML, like Gecko) Chrome/96.0.4664.110 Safari/537.36",WebKit,Chrome,96.0.4664.110,Windows,10.0,ac0f2dffeffaa78d35a552e03d03f0a8
21,2,"""",test_procedure,stim_test,canvas-button-response,140,345866,0.0-11.0-0.1-1.32,3PKVGQTFJQLSZOM7OKJDU84QFXXYRA,AQMLJYUQCSG22,3LYA37P8IZODMWDUEA1Y95GZ2HOBK5,83YL4,83YL4,3LYA37P8IZODMWDUEA1Y95GZ2HOBK5,3LYA37P8IZODMWDUEA1Y95GZ2HOBK5,338054,338054,2,0.04,"""",1193.3000001907349,1,catchStim8,0,Counter-clockwise,false,"""",0.3,120,0.001,"""","2021-12-31 03:55:25",76.168.193.216,"Mozilla/5.0 (Windows NT 10.0; Win64; x64) AppleWebKit/537.36 (KHTML, like Gecko) Chrome/96.0.4664.110 Safari/537.36",WebKit,Chrome,96.0.4664.110,Windows,10.0,ac0f2dffeffaa78d35a552e03d03f0a8
21,2,"""",test_procedure,confidence_rating,html-slider-response,141,347156,0.0-11.0-0.1-2.32,3PKVGQTFJQLSZOM7OKJDU84QFXXYRA,AQMLJYUQCSG22,3LYA37P8IZODMWDUEA1Y95GZ2HOBK5,83YL4,83YL4,3LYA37P8IZODMWDUEA1Y95GZ2HOBK5,3LYA37P8IZODMWDUEA1Y95GZ2HOBK5,338054,338054,2,0.04,"""",1289.3000001907349,69,"<div id=""message-div""><p>How confident are you that your clockwise/counter-clockwise response just now was accurate? Please rate your confidence on the slider bar below.</p></div>","""","""","""",50,"""","""","""",69,"2021-12-31 03:55:25",76.168.193.216,"Mozilla/5.0 (Windows NT 10.0; Win64; x64) AppleWebKit/537.36 (KHTML, like Gecko) Chrome/96.0.4664.110 Safari/537.36",WebKit,Chrome,96.0.4664.110,Windows,10.0,ac0f2dffeffaa78d35a552e03d03f0a8
21,2,"""",test_procedure,fixation,html-keyboard-response,142,347657,0.0-11.0-0.1-0.33,3PKVGQTFJQLSZOM7OKJDU84QFXXYRA,AQMLJYUQCSG22,3LYA37P8IZODMWDUEA1Y95GZ2HOBK5,83YL4,83YL4,3LYA37P8IZODMWDUEA1Y95GZ2HOBK5,3LYA37P8IZODMWDUEA1Y95GZ2HOBK5,338054,338054,2,0.04,"""",null,null,"<div class = fixationbox><div class = fixation>+</div></div>","""","""","""","""","""","""","""","""","2021-12-31 03:55:25",76.168.193.216,"Mozilla/5.0 (Windows NT 10.0; Win64; x64) AppleWebKit/537.36 (KHTML, like Gecko) Chrome/96.0.4664.110 Safari/537.36",WebKit,Chrome,96.0.4664.110,Windows,10.0,ac0f2dffeffaa78d35a552e03d03f0a8
21,2,"""",test_procedure,stim_test,canvas-button-response,143,348802,0.0-11.0-0.1-1.33,3PKVGQTFJQLSZOM7OKJDU84QFXXYRA,AQMLJYUQCSG22,3LYA37P8IZODMWDUEA1Y95GZ2HOBK5,83YL4,83YL4,3LYA37P8IZODMWDUEA1Y95GZ2HOBK5,3LYA37P8IZODMWDUEA1Y95GZ2HOBK5,338054,338054,2,0.04,"""",1112.5999999046326,0,stim1,1,Clockwise,false,"""",0.01,60,"""","""","2021-12-31 03:55:25",76.168.193.216,"Mozilla/5.0 (Windows NT 10.0; Win64; x64) AppleWebKit/537.36 (KHTML, like Gecko) Chrome/96.0.4664.110 Safari/537.36",WebKit,Chrome,96.0.4664.110,Windows,10.0,ac0f2dffeffaa78d35a552e03d03f0a8
21,2,"""",test_procedure,confidence_rating,html-slider-response,144,350356,0.0-11.0-0.1-2.33,3PKVGQTFJQLSZOM7OKJDU84QFXXYRA,AQMLJYUQCSG22,3LYA37P8IZODMWDUEA1Y95GZ2HOBK5,83YL4,83YL4,3LYA37P8IZODMWDUEA1Y95GZ2HOBK5,3LYA37P8IZODMWDUEA1Y95GZ2HOBK5,338054,338054,2,0.04,"""",1553.2000000476837,51,"<div id=""message-div""><p>How confident are you that your clockwise/counter-clockwise response just now was accurate? Please rate your confidence on the slider bar below.</p></div>","""","""","""",50,"""","""","""",51,"2021-12-31 03:55:25",76.168.193.216,"Mozilla/5.0 (Windows NT 10.0; Win64; x64) AppleWebKit/537.36 (KHTML, like Gecko) Chrome/96.0.4664.110 Safari/537.36",WebKit,Chrome,96.0.4664.110,Windows,10.0,ac0f2dffeffaa78d35a552e03d03f0a8
21,2,"""",test_procedure,fixation,html-keyboard-response,145,350857,0.0-11.0-0.1-0.34,3PKVGQTFJQLSZOM7OKJDU84QFXXYRA,AQMLJYUQCSG22,3LYA37P8IZODMWDUEA1Y95GZ2HOBK5,83YL4,83YL4,3LYA37P8IZODMWDUEA1Y95GZ2HOBK5,3LYA37P8IZODMWDUEA1Y95GZ2HOBK5,338054,338054,2,0.04,"""",null,null,"<div class = fixationbox><div class = fixation>+</div></div>","""","""","""","""","""","""","""","""","2021-12-31 03:55:25",76.168.193.216,"Mozilla/5.0 (Windows NT 10.0; Win64; x64) AppleWebKit/537.36 (KHTML, like Gecko) Chrome/96.0.4664.110 Safari/537.36",WebKit,Chrome,96.0.4664.110,Windows,10.0,ac0f2dffeffaa78d35a552e03d03f0a8
21,2,"""",test_procedure,stim_test,canvas-button-response,146,351914,0.0-11.0-0.1-1.34,3PKVGQTFJQLSZOM7OKJDU84QFXXYRA,AQMLJYUQCSG22,3LYA37P8IZODMWDUEA1Y95GZ2HOBK5,83YL4,83YL4,3LYA37P8IZODMWDUEA1Y95GZ2HOBK5,3LYA37P8IZODMWDUEA1Y95GZ2HOBK5,338054,338054,2,0.04,"""",1024,1,catchStim5,1,Clockwise,true,"""",0.3,60,0.6,"""","2021-12-31 03:55:25",76.168.193.216,"Mozilla/5.0 (Windows NT 10.0; Win64; x64) AppleWebKit/537.36 (KHTML, like Gecko) Chrome/96.0.4664.110 Safari/537.36",WebKit,Chrome,96.0.4664.110,Windows,10.0,ac0f2dffeffaa78d35a552e03d03f0a8
21,2,"""",test_procedure,confidence_rating,html-slider-response,147,353644,0.0-11.0-0.1-2.34,3PKVGQTFJQLSZOM7OKJDU84QFXXYRA,AQMLJYUQCSG22,3LYA37P8IZODMWDUEA1Y95GZ2HOBK5,83YL4,83YL4,3LYA37P8IZODMWDUEA1Y95GZ2HOBK5,3LYA37P8IZODMWDUEA1Y95GZ2HOBK5,338054,338054,2,0.04,"""",1726.8999998569489,86,"<div id=""message-div""><p>How confident are you that your clockwise/counter-clockwise response just now was accurate? Please rate your confidence on the slider bar below.</p></div>","""","""","""",50,"""","""","""",86,"2021-12-31 03:55:25",76.168.193.216,"Mozilla/5.0 (Windows NT 10.0; Win64; x64) AppleWebKit/537.36 (KHTML, like Gecko) Chrome/96.0.4664.110 Safari/537.36",WebKit,Chrome,96.0.4664.110,Windows,10.0,ac0f2dffeffaa78d35a552e03d03f0a8
21,2,"""",test_procedure,fixation,html-keyboard-response,148,354145,0.0-11.0-0.1-0.35,3PKVGQTFJQLSZOM7OKJDU84QFXXYRA,AQMLJYUQCSG22,3LYA37P8IZODMWDUEA1Y95GZ2HOBK5,83YL4,83YL4,3LYA37P8IZODMWDUEA1Y95GZ2HOBK5,3LYA37P8IZODMWDUEA1Y95GZ2HOBK5,338054,338054,2,0.04,"""",null,null,"<div class = fixationbox><div class = fixation>+</div></div>","""","""","""","""","""","""","""","""","2021-12-31 03:55:25",76.168.193.216,"Mozilla/5.0 (Windows NT 10.0; Win64; x64) AppleWebKit/537.36 (KHTML, like Gecko) Chrome/96.0.4664.110 Safari/537.36",WebKit,Chrome,96.0.4664.110,Windows,10.0,ac0f2dffeffaa78d35a552e03d03f0a8
21,2,"""",test_procedure,stim_test,canvas-button-response,149,355190,0.0-11.0-0.1-1.35,3PKVGQTFJQLSZOM7OKJDU84QFXXYRA,AQMLJYUQCSG22,3LYA37P8IZODMWDUEA1Y95GZ2HOBK5,83YL4,83YL4,3LYA37P8IZODMWDUEA1Y95GZ2HOBK5,3LYA37P8IZODMWDUEA1Y95GZ2HOBK5,338054,338054,2,0.04,"""",1012.5,1,catchStim2,0,Counter-clockwise,false,"""",0.01,120,0.6,"""","2021-12-31 03:55:25",76.168.193.216,"Mozilla/5.0 (Windows NT 10.0; Win64; x64) AppleWebKit/537.36 (KHTML, like Gecko) Chrome/96.0.4664.110 Safari/537.36",WebKit,Chrome,96.0.4664.110,Windows,10.0,ac0f2dffeffaa78d35a552e03d03f0a8
21,2,"""",test_procedure,confidence_rating,html-slider-response,150,357552,0.0-11.0-0.1-2.35,3PKVGQTFJQLSZOM7OKJDU84QFXXYRA,AQMLJYUQCSG22,3LYA37P8IZODMWDUEA1Y95GZ2HOBK5,83YL4,83YL4,3LYA37P8IZODMWDUEA1Y95GZ2HOBK5,3LYA37P8IZODMWDUEA1Y95GZ2HOBK5,338054,338054,2,0.04,"""",2361.100000143051,2,"<div id=""message-div""><p>How confident are you that your clockwise/counter-clockwise response just now was accurate? Please rate your confidence on the slider bar below.</p></div>","""","""","""",50,"""","""","""",2,"2021-12-31 03:55:25",76.168.193.216,"Mozilla/5.0 (Windows NT 10.0; Win64; x64) AppleWebKit/537.36 (KHTML, like Gecko) Chrome/96.0.4664.110 Safari/537.36",WebKit,Chrome,96.0.4664.110,Windows,10.0,ac0f2dffeffaa78d35a552e03d03f0a8
21,2,"""",test_procedure,fixation,html-keyboard-response,151,358053,0.0-11.0-0.1-0.36,3PKVGQTFJQLSZOM7OKJDU84QFXXYRA,AQMLJYUQCSG22,3LYA37P8IZODMWDUEA1Y95GZ2HOBK5,83YL4,83YL4,3LYA37P8IZODMWDUEA1Y95GZ2HOBK5,3LYA37P8IZODMWDUEA1Y95GZ2HOBK5,338054,338054,2,0.04,"""",null,null,"<div class = fixationbox><div class = fixation>+</div></div>","""","""","""","""","""","""","""","""","2021-12-31 03:55:25",76.168.193.216,"Mozilla/5.0 (Windows NT 10.0; Win64; x64) AppleWebKit/537.36 (KHTML, like Gecko) Chrome/96.0.4664.110 Safari/537.36",WebKit,Chrome,96.0.4664.110,Windows,10.0,ac0f2dffeffaa78d35a552e03d03f0a8
21,2,"""",test_procedure,stim_test,canvas-button-response,152,359412,0.0-11.0-0.1-1.36,3PKVGQTFJQLSZOM7OKJDU84QFXXYRA,AQMLJYUQCSG22,3LYA37P8IZODMWDUEA1Y95GZ2HOBK5,83YL4,83YL4,3LYA37P8IZODMWDUEA1Y95GZ2HOBK5,3LYA37P8IZODMWDUEA1Y95GZ2HOBK5,338054,338054,2,0.04,"""",1325.7000000476837,0,stim4,0,Counter-clockwise,true,"""",0.3,120,"""","""","2021-12-31 03:55:25",76.168.193.216,"Mozilla/5.0 (Windows NT 10.0; Win64; x64) AppleWebKit/537.36 (KHTML, like Gecko) Chrome/96.0.4664.110 Safari/537.36",WebKit,Chrome,96.0.4664.110,Windows,10.0,ac0f2dffeffaa78d35a552e03d03f0a8
21,2,"""",test_procedure,confidence_rating,html-slider-response,153,361238,0.0-11.0-0.1-2.36,3PKVGQTFJQLSZOM7OKJDU84QFXXYRA,AQMLJYUQCSG22,3LYA37P8IZODMWDUEA1Y95GZ2HOBK5,83YL4,83YL4,3LYA37P8IZODMWDUEA1Y95GZ2HOBK5,3LYA37P8IZODMWDUEA1Y95GZ2HOBK5,338054,338054,2,0.04,"""",1822.5999999046326,39,"<div id=""message-div""><p>How confident are you that your clockwise/counter-clockwise response just now was accurate? Please rate your confidence on the slider bar below.</p></div>","""","""","""",50,"""","""","""",39,"2021-12-31 03:55:25",76.168.193.216,"Mozilla/5.0 (Windows NT 10.0; Win64; x64) AppleWebKit/537.36 (KHTML, like Gecko) Chrome/96.0.4664.110 Safari/537.36",WebKit,Chrome,96.0.4664.110,Windows,10.0,ac0f2dffeffaa78d35a552e03d03f0a8
21,2,"""",test_procedure,fixation,html-keyboard-response,154,361739,0.0-11.0-0.1-0.37,3PKVGQTFJQLSZOM7OKJDU84QFXXYRA,AQMLJYUQCSG22,3LYA37P8IZODMWDUEA1Y95GZ2HOBK5,83YL4,83YL4,3LYA37P8IZODMWDUEA1Y95GZ2HOBK5,3LYA37P8IZODMWDUEA1Y95GZ2HOBK5,338054,338054,2,0.04,"""",null,null,"<div class = fixationbox><div class = fixation>+</div></div>","""","""","""","""","""","""","""","""","2021-12-31 03:55:25",76.168.193.216,"Mozilla/5.0 (Windows NT 10.0; Win64; x64) AppleWebKit/537.36 (KHTML, like Gecko) Chrome/96.0.4664.110 Safari/537.36",WebKit,Chrome,96.0.4664.110,Windows,10.0,ac0f2dffeffaa78d35a552e03d03f0a8
21,2,"""",test_procedure,stim_test,canvas-button-response,155,362936,0.0-11.0-0.1-1.37,3PKVGQTFJQLSZOM7OKJDU84QFXXYRA,AQMLJYUQCSG22,3LYA37P8IZODMWDUEA1Y95GZ2HOBK5,83YL4,83YL4,3LYA37P8IZODMWDUEA1Y95GZ2HOBK5,3LYA37P8IZODMWDUEA1Y95GZ2HOBK5,338054,338054,2,0.04,"""",1164.7000000476837,0,stim1,1,Clockwise,false,"""",0.01,60,"""","""","2021-12-31 03:55:25",76.168.193.216,"Mozilla/5.0 (Windows NT 10.0; Win64; x64) AppleWebKit/537.36 (KHTML, like Gecko) Chrome/96.0.4664.110 Safari/537.36",WebKit,Chrome,96.0.4664.110,Windows,10.0,ac0f2dffeffaa78d35a552e03d03f0a8
