run_id,condition,success,exp_stage,trial_id,trial_type,trial_index,time_elapsed,internal_node_id,hitId,workerId,assignmentId,a,tp_a,b,tp_b,c,tp_c,conditionmyown,cen_signal_contrast_stim,view_history,rt,response,stimulus,correct_response,correct_response_in_clockwise_or_counterclockwise,correct,slider_start,ctx_signal_contrast,cen_angle_in_degree,cen_signal_contrast_catchStim,confidence,recorded_at,ip,user_agent,device,browser,browser_version,platform,platform_version,source_code_version
19,1,true,pre-exp,fullscreen_starts,fullscreen,0,2618,0.0-0.0,3SD15I2WEBVYX2RZ7BNPTJHHA9P63F,A3774HPOUKYTX7,34X6J5FLP2Z5FI91F7YC3FBL9SPJQQ,LJX44,LJX44,34X6J5FLP2Z5FI91F7YC3FBL9SPJQQ,34X6J5FLP2Z5FI91F7YC3FBL9SPJQQ,338054,338054,1,0.03,"""","""","""","""","""","""","""","""","""","""","""","""","2021-12-31 03:42:06",67.180.106.232,"Mozilla/5.0 (Windows NT 10.0; Win64; x64) AppleWebKit/537.36 (KHTML, like Gecko) Chrome/96.0.4664.110 Safari/537.36",WebKit,Chrome,96.0.4664.110,Windows,10.0,ac0f2dffeffaa78d35a552e03d03f0a8
19,1,"""",pre-exp,instructionspage1,instructions,1,3957,0.0-1.0-0.0,3SD15I2WEBVYX2RZ7BNPTJHHA9P63F,A3774HPOUKYTX7,34X6J5FLP2Z5FI91F7YC3FBL9SPJQQ,LJX44,LJX44,34X6J5FLP2Z5FI91F7YC3FBL9SPJQQ,34X6J5FLP2Z5FI91F7YC3FBL9SPJQQ,338054,338054,1,0.03,"[{""page_index"":0,""viewing_time"":1324.4000000953674}]",1324.9000000953674,"""","""","""","""","""","""","""","""","""","""","2021-12-31 03:42:06",67.180.106.232,"Mozilla/5.0 (Windows NT 10.0; Win64; x64) AppleWebKit/537.36 (KHTML, like Gecko) Chrome/96.0.4664.110 Safari/537.36",WebKit,Chrome,96.0.4664.110,Windows,10.0,ac0f2dffeffaa78d35a552e03d03f0a8
19,1,"""",pre-exp,instructions_block2,canvas-button-response,2,10873,0.0-2.0-0.0-0.0,3SD15I2WEBVYX2RZ7BNPTJHHA9P63F,A3774HPOUKYTX7,34X6J5FLP2Z5FI91F7YC3FBL9SPJQQ,LJX44,LJX44,34X6J5FLP2Z5FI91F7YC3FBL9SPJQQ,34X6J5FLP2Z5FI91F7YC3FBL9SPJQQ,338054,338054,1,0.03,"""",6780.300000190735,1,instructionStim1,1,Clockwise,true,"""","""","""","""","""","2021-12-31 03:42:06",67.180.106.232,"Mozilla/5.0 (Windows NT 10.0; Win64; x64) AppleWebKit/537.36 (KHTML, like Gecko) Chrome/96.0.4664.110 Safari/537.36",WebKit,Chrome,96.0.4664.110,Windows,10.0,ac0f2dffeffaa78d35a552e03d03f0a8
19,1,"""",pre-exp,instructions_block3,canvas-button-response,3,12835,0.0-3.0-0.0-0.0,3SD15I2WEBVYX2RZ7BNPTJHHA9P63F,A3774HPOUKYTX7,34X6J5FLP2Z5FI91F7YC3FBL9SPJQQ,LJX44,LJX44,34X6J5FLP2Z5FI91F7YC3FBL9SPJQQ,34X6J5FLP2Z5FI91F7YC3FBL9SPJQQ,338054,338054,1,0.03,"""",1816.4000000953674,0,instructionStim2,0,Counter-clockwise,true,"""","""","""","""","""","2021-12-31 03:42:06",67.180.106.232,"Mozilla/5.0 (Windows NT 10.0; Win64; x64) AppleWebKit/537.36 (KHTML, like Gecko) Chrome/96.0.4664.110 Safari/537.36",WebKit,Chrome,96.0.4664.110,Windows,10.0,ac0f2dffeffaa78d35a552e03d03f0a8
19,1,"""",pre-exp,instructions_block4,html-slider-response,4,25024,0.0-4.0,3SD15I2WEBVYX2RZ7BNPTJHHA9P63F,A3774HPOUKYTX7,34X6J5FLP2Z5FI91F7YC3FBL9SPJQQ,LJX44,LJX44,34X6J5FLP2Z5FI91F7YC3FBL9SPJQQ,34X6J5FLP2Z5FI91F7YC3FBL9SPJQQ,338054,338054,1,0.03,"""",12185.200000286102,52,"<div id=""message-div""><p>After you have made your clockwise/counter-clockwise choice, <br>you will be asked to rate how confident you are that you were correct in your clockwise/counter-clockwise choice using a slide bar.<br>Please try to use the entire range of the slider bar.<br>For example, feel free to move the slider to the leftmost location if you are extremely uncertain about your choice, and the rightmost location if you are extremely certain.</p></div>","""","""","""",50,"""","""","""","""","2021-12-31 03:42:06",67.180.106.232,"Mozilla/5.0 (Windows NT 10.0; Win64; x64) AppleWebKit/537.36 (KHTML, like Gecko) Chrome/96.0.4664.110 Safari/537.36",WebKit,Chrome,96.0.4664.110,Windows,10.0,ac0f2dffeffaa78d35a552e03d03f0a8
19,1,"""",pre-exp,instructionspage5,instructions,5,26358,0.0-5.0-0.0,3SD15I2WEBVYX2RZ7BNPTJHHA9P63F,A3774HPOUKYTX7,34X6J5FLP2Z5FI91F7YC3FBL9SPJQQ,LJX44,LJX44,34X6J5FLP2Z5FI91F7YC3FBL9SPJQQ,34X6J5FLP2Z5FI91F7YC3FBL9SPJQQ,338054,338054,1,0.03,"[{""page_index"":0,""viewing_time"":1330.5999999046326}]",1331,"""","""","""","""","""","""","""","""","""","""","2021-12-31 03:42:06",67.180.106.232,"Mozilla/5.0 (Windows NT 10.0; Win64; x64) AppleWebKit/537.36 (KHTML, like Gecko) Chrome/96.0.4664.110 Safari/537.36",WebKit,Chrome,96.0.4664.110,Windows,10.0,ac0f2dffeffaa78d35a552e03d03f0a8
19,1,"""",pre-exp,repeat_instructions_conditionalpage5,html-button-response,6,27379,0.0-5.0-1.0-0.0,3SD15I2WEBVYX2RZ7BNPTJHHA9P63F,A3774HPOUKYTX7,34X6J5FLP2Z5FI91F7YC3FBL9SPJQQ,LJX44,LJX44,34X6J5FLP2Z5FI91F7YC3FBL9SPJQQ,34X6J5FLP2Z5FI91F7YC3FBL9SPJQQ,338054,338054,1,0.03,"""",1018.8000001907349,0,"<div id=""message-div""><p>Please read this carefully. The instructions will be shown again now.</p><p>Click the ""Continue"" button to continue.</p></div>","""","""","""","""","""","""","""","""","2021-12-31 03:42:06",67.180.106.232,"Mozilla/5.0 (Windows NT 10.0; Win64; x64) AppleWebKit/537.36 (KHTML, like Gecko) Chrome/96.0.4664.110 Safari/537.36",WebKit,Chrome,96.0.4664.110,Windows,10.0,ac0f2dffeffaa78d35a552e03d03f0a8
19,1,"""",pre-exp,instructionspage5,instructions,7,28061,0.0-5.1-0.1,3SD15I2WEBVYX2RZ7BNPTJHHA9P63F,A3774HPOUKYTX7,34X6J5FLP2Z5FI91F7YC3FBL9SPJQQ,LJX44,LJX44,34X6J5FLP2Z5FI91F7YC3FBL9SPJQQ,34X6J5FLP2Z5FI91F7YC3FBL9SPJQQ,338054,338054,1,0.03,"[{""page_index"":0,""viewing_time"":680.5999999046326}]",680.8999996185303,"""","""","""","""","""","""","""","""","""","""","2021-12-31 03:42:06",67.180.106.232,"Mozilla/5.0 (Windows NT 10.0; Win64; x64) AppleWebKit/537.36 (KHTML, like Gecko) Chrome/96.0.4664.110 Safari/537.36",WebKit,Chrome,96.0.4664.110,Windows,10.0,ac0f2dffeffaa78d35a552e03d03f0a8
19,1,"""",pre-exp,repeat_instructions_conditionalpage5,html-button-response,8,28662,0.0-5.1-1.1-0.1,3SD15I2WEBVYX2RZ7BNPTJHHA9P63F,A3774HPOUKYTX7,34X6J5FLP2Z5FI91F7YC3FBL9SPJQQ,LJX44,LJX44,34X6J5FLP2Z5FI91F7YC3FBL9SPJQQ,34X6J5FLP2Z5FI91F7YC3FBL9SPJQQ,338054,338054,1,0.03,"""",600.4000000953674,0,"<div id=""message-div""><p>Please read this carefully. The instructions will be shown again now.</p><p>Click the ""Continue"" button to continue.</p></div>","""","""","""","""","""","""","""","""","2021-12-31 03:42:06",67.180.106.232,"Mozilla/5.0 (Windows NT 10.0; Win64; x64) AppleWebKit/537.36 (KHTML, like Gecko) Chrome/96.0.4664.110 Safari/537.36",WebKit,Chrome,96.0.4664.110,Windows,10.0,ac0f2dffeffaa78d35a552e03d03f0a8
19,1,"""",pre-exp,instructionspage5,instructions,9,29160,0.0-5.2-0.2,3SD15I2WEBVYX2RZ7BNPTJHHA9P63F,A3774HPOUKYTX7,34X6J5FLP2Z5FI91F7YC3FBL9SPJQQ,LJX44,LJX44,34X6J5FLP2Z5FI91F7YC3FBL9SPJQQ,34X6J5FLP2Z5FI91F7YC3FBL9SPJQQ,338054,338054,1,0.03,"[{""page_index"":0,""viewing_time"":497.6000003814697}]",497.90000009536743,"""","""","""","""","""","""","""","""","""","""","2021-12-31 03:42:06",67.180.106.232,"Mozilla/5.0 (Windows NT 10.0; Win64; x64) AppleWebKit/537.36 (KHTML, like Gecko) Chrome/96.0.4664.110 Safari/537.36",WebKit,Chrome,96.0.4664.110,Windows,10.0,ac0f2dffeffaa78d35a552e03d03f0a8
19,1,"""",pre-exp,repeat_instructions_conditionalpage5,html-button-response,10,29618,0.0-5.2-1.2-0.2,3SD15I2WEBVYX2RZ7BNPTJHHA9P63F,A3774HPOUKYTX7,34X6J5FLP2Z5FI91F7YC3FBL9SPJQQ,LJX44,LJX44,34X6J5FLP2Z5FI91F7YC3FBL9SPJQQ,34X6J5FLP2Z5FI91F7YC3FBL9SPJQQ,338054,338054,1,0.03,"""",456.09999990463257,0,"<div id=""message-div""><p>Please read this carefully. The instructions will be shown again now.</p><p>Click the ""Continue"" button to continue.</p></div>","""","""","""","""","""","""","""","""","2021-12-31 03:42:06",67.180.106.232,"Mozilla/5.0 (Windows NT 10.0; Win64; x64) AppleWebKit/537.36 (KHTML, like Gecko) Chrome/96.0.4664.110 Safari/537.36",WebKit,Chrome,96.0.4664.110,Windows,10.0,ac0f2dffeffaa78d35a552e03d03f0a8
19,1,"""",pre-exp,instructionspage5,instructions,11,30573,0.0-5.3-0.3,3SD15I2WEBVYX2RZ7BNPTJHHA9P63F,A3774HPOUKYTX7,34X6J5FLP2Z5FI91F7YC3FBL9SPJQQ,LJX44,LJX44,34X6J5FLP2Z5FI91F7YC3FBL9SPJQQ,34X6J5FLP2Z5FI91F7YC3FBL9SPJQQ,338054,338054,1,0.03,"[{""page_index"":0,""viewing_time"":954}]",954.2999997138977,"""","""","""","""","""","""","""","""","""","""","2021-12-31 03:42:06",67.180.106.232,"Mozilla/5.0 (Windows NT 10.0; Win64; x64) AppleWebKit/537.36 (KHTML, like Gecko) Chrome/96.0.4664.110 Safari/537.36",WebKit,Chrome,96.0.4664.110,Windows,10.0,ac0f2dffeffaa78d35a552e03d03f0a8
19,1,"""",pre-exp,repeat_instructions_conditionalpage5,html-button-response,12,31031,0.0-5.3-1.3-0.3,3SD15I2WEBVYX2RZ7BNPTJHHA9P63F,A3774HPOUKYTX7,34X6J5FLP2Z5FI91F7YC3FBL9SPJQQ,LJX44,LJX44,34X6J5FLP2Z5FI91F7YC3FBL9SPJQQ,34X6J5FLP2Z5FI91F7YC3FBL9SPJQQ,338054,338054,1,0.03,"""",454.69999980926514,0,"<div id=""message-div""><p>Please read this carefully. The instructions will be shown again now.</p><p>Click the ""Continue"" button to continue.</p></div>","""","""","""","""","""","""","""","""","2021-12-31 03:42:06",67.180.106.232,"Mozilla/5.0 (Windows NT 10.0; Win64; x64) AppleWebKit/537.36 (KHTML, like Gecko) Chrome/96.0.4664.110 Safari/537.36",WebKit,Chrome,96.0.4664.110,Windows,10.0,ac0f2dffeffaa78d35a552e03d03f0a8
19,1,"""",pre-exp,instructionspage5,instructions,13,31449,0.0-5.4-0.4,3SD15I2WEBVYX2RZ7BNPTJHHA9P63F,A3774HPOUKYTX7,34X6J5FLP2Z5FI91F7YC3FBL9SPJQQ,LJX44,LJX44,34X6J5FLP2Z5FI91F7YC3FBL9SPJQQ,34X6J5FLP2Z5FI91F7YC3FBL9SPJQQ,338054,338054,1,0.03,"[{""page_index"":0,""viewing_time"":417}]",417.30000019073486,"""","""","""","""","""","""","""","""","""","""","2021-12-31 03:42:06",67.180.106.232,"Mozilla/5.0 (Windows NT 10.0; Win64; x64) AppleWebKit/537.36 (KHTML, like Gecko) Chrome/96.0.4664.110 Safari/537.36",WebKit,Chrome,96.0.4664.110,Windows,10.0,ac0f2dffeffaa78d35a552e03d03f0a8
19,1,"""",pre-exp,repeat_instructions_conditionalpage5,html-button-response,14,31858,0.0-5.4-1.4-0.4,3SD15I2WEBVYX2RZ7BNPTJHHA9P63F,A3774HPOUKYTX7,34X6J5FLP2Z5FI91F7YC3FBL9SPJQQ,LJX44,LJX44,34X6J5FLP2Z5FI91F7YC3FBL9SPJQQ,34X6J5FLP2Z5FI91F7YC3FBL9SPJQQ,338054,338054,1,0.03,"""",407.80000019073486,0,"<div id=""message-div""><p>Please read this carefully. The instructions will be shown again now.</p><p>Click the ""Continue"" button to continue.</p></div>","""","""","""","""","""","""","""","""","2021-12-31 03:42:06",67.180.106.232,"Mozilla/5.0 (Windows NT 10.0; Win64; x64) AppleWebKit/537.36 (KHTML, like Gecko) Chrome/96.0.4664.110 Safari/537.36",WebKit,Chrome,96.0.4664.110,Windows,10.0,ac0f2dffeffaa78d35a552e03d03f0a8
19,1,"""",pre-exp,instructionspage5,instructions,15,32067,0.0-5.5-0.5,3SD15I2WEBVYX2RZ7BNPTJHHA9P63F,A3774HPOUKYTX7,34X6J5FLP2Z5FI91F7YC3FBL9SPJQQ,LJX44,LJX44,34X6J5FLP2Z5FI91F7YC3FBL9SPJQQ,34X6J5FLP2Z5FI91F7YC3FBL9SPJQQ,338054,338054,1,0.03,"[{""page_index"":0,""viewing_time"":208.30000019073486}]",208.59999990463257,"""","""","""","""","""","""","""","""","""","""","2021-12-31 03:42:06",67.180.106.232,"Mozilla/5.0 (Windows NT 10.0; Win64; x64) AppleWebKit/537.36 (KHTML, like Gecko) Chrome/96.0.4664.110 Safari/537.36",WebKit,Chrome,96.0.4664.110,Windows,10.0,ac0f2dffeffaa78d35a552e03d03f0a8
19,1,"""",pre-exp,repeat_instructions_conditionalpage5,html-button-response,16,32268,0.0-5.5-1.5-0.5,3SD15I2WEBVYX2RZ7BNPTJHHA9P63F,A3774HPOUKYTX7,34X6J5FLP2Z5FI91F7YC3FBL9SPJQQ,LJX44,LJX44,34X6J5FLP2Z5FI91F7YC3FBL9SPJQQ,34X6J5FLP2Z5FI91F7YC3FBL9SPJQQ,338054,338054,1,0.03,"""",200.30000019073486,0,"<div id=""message-div""><p>Please read this carefully. The instructions will be shown again now.</p><p>Click the ""Continue"" button to continue.</p></div>","""","""","""","""","""","""","""","""","2021-12-31 03:42:06",67.180.106.232,"Mozilla/5.0 (Windows NT 10.0; Win64; x64) AppleWebKit/537.36 (KHTML, like Gecko) Chrome/96.0.4664.110 Safari/537.36",WebKit,Chrome,96.0.4664.110,Windows,10.0,ac0f2dffeffaa78d35a552e03d03f0a8
19,1,"""",pre-exp,instructionspage5,instructions,17,32461,0.0-5.6-0.6,3SD15I2WEBVYX2RZ7BNPTJHHA9P63F,A3774HPOUKYTX7,34X6J5FLP2Z5FI91F7YC3FBL9SPJQQ,LJX44,LJX44,34X6J5FLP2Z5FI91F7YC3FBL9SPJQQ,34X6J5FLP2Z5FI91F7YC3FBL9SPJQQ,338054,338054,1,0.03,"[{""page_index"":0,""viewing_time"":192.40000009536743}]",192.59999990463257,"""","""","""","""","""","""","""","""","""","""","2021-12-31 03:42:06",67.180.106.232,"Mozilla/5.0 (Windows NT 10.0; Win64; x64) AppleWebKit/537.36 (KHTML, like Gecko) Chrome/96.0.4664.110 Safari/537.36",WebKit,Chrome,96.0.4664.110,Windows,10.0,ac0f2dffeffaa78d35a552e03d03f0a8
19,1,"""",pre-exp,repeat_instructions_conditionalpage5,html-button-response,18,32638,0.0-5.6-1.6-0.6,3SD15I2WEBVYX2RZ7BNPTJHHA9P63F,A3774HPOUKYTX7,34X6J5FLP2Z5FI91F7YC3FBL9SPJQQ,LJX44,LJX44,34X6J5FLP2Z5FI91F7YC3FBL9SPJQQ,34X6J5FLP2Z5FI91F7YC3FBL9SPJQQ,338054,338054,1,0.03,"""",176.09999990463257,0,"<div id=""message-div""><p>Please read this carefully. The instructions will be shown again now.</p><p>Click the ""Continue"" button to continue.</p></div>","""","""","""","""","""","""","""","""","2021-12-31 03:42:06",67.180.106.232,"Mozilla/5.0 (Windows NT 10.0; Win64; x64) AppleWebKit/537.36 (KHTML, like Gecko) Chrome/96.0.4664.110 Safari/537.36",WebKit,Chrome,96.0.4664.110,Windows,10.0,ac0f2dffeffaa78d35a552e03d03f0a8
19,1,"""",pre-exp,instructionspage5,instructions,19,32822,0.0-5.7-0.7,3SD15I2WEBVYX2RZ7BNPTJHHA9P63F,A3774HPOUKYTX7,34X6J5FLP2Z5FI91F7YC3FBL9SPJQQ,LJX44,LJX44,34X6J5FLP2Z5FI91F7YC3FBL9SPJQQ,34X6J5FLP2Z5FI91F7YC3FBL9SPJQQ,338054,338054,1,0.03,"[{""page_index"":0,""viewing_time"":183}]",183.09999990463257,"""","""","""","""","""","""","""","""","""","""","2021-12-31 03:42:06",67.180.106.232,"Mozilla/5.0 (Windows NT 10.0; Win64; x64) AppleWebKit/537.36 (KHTML, like Gecko) Chrome/96.0.4664.110 Safari/537.36",WebKit,Chrome,96.0.4664.110,Windows,10.0,ac0f2dffeffaa78d35a552e03d03f0a8
19,1,"""",pre-exp,repeat_instructions_conditionalpage5,html-button-response,20,33007,0.0-5.7-1.7-0.7,3SD15I2WEBVYX2RZ7BNPTJHHA9P63F,A3774HPOUKYTX7,34X6J5FLP2Z5FI91F7YC3FBL9SPJQQ,LJX44,LJX44,34X6J5FLP2Z5FI91F7YC3FBL9SPJQQ,34X6J5FLP2Z5FI91F7YC3FBL9SPJQQ,338054,338054,1,0.03,"""",183.7999997138977,0,"<div id=""message-div""><p>Please read this carefully. The instructions will be shown again now.</p><p>Click the ""Continue"" button to continue.</p></div>","""","""","""","""","""","""","""","""","2021-12-31 03:42:06",67.180.106.232,"Mozilla/5.0 (Windows NT 10.0; Win64; x64) AppleWebKit/537.36 (KHTML, like Gecko) Chrome/96.0.4664.110 Safari/537.36",WebKit,Chrome,96.0.4664.110,Windows,10.0,ac0f2dffeffaa78d35a552e03d03f0a8
19,1,"""",pre-exp,instructionspage5,instructions,21,33199,0.0-5.8-0.8,3SD15I2WEBVYX2RZ7BNPTJHHA9P63F,A3774HPOUKYTX7,34X6J5FLP2Z5FI91F7YC3FBL9SPJQQ,LJX44,LJX44,34X6J5FLP2Z5FI91F7YC3FBL9SPJQQ,34X6J5FLP2Z5FI91F7YC3FBL9SPJQQ,338054,338054,1,0.03,"[{""page_index"":0,""viewing_time"":191.09999990463257}]",191.30000019073486,"""","""","""","""","""","""","""","""","""","""","2021-12-31 03:42:06",67.180.106.232,"Mozilla/5.0 (Windows NT 10.0; Win64; x64) AppleWebKit/537.36 (KHTML, like Gecko) Chrome/96.0.4664.110 Safari/537.36",WebKit,Chrome,96.0.4664.110,Windows,10.0,ac0f2dffeffaa78d35a552e03d03f0a8
19,1,"""",pre-exp,repeat_instructions_conditionalpage5,html-button-response,22,33400,0.0-5.8-1.8-0.8,3SD15I2WEBVYX2RZ7BNPTJHHA9P63F,A3774HPOUKYTX7,34X6J5FLP2Z5FI91F7YC3FBL9SPJQQ,LJX44,LJX44,34X6J5FLP2Z5FI91F7YC3FBL9SPJQQ,34X6J5FLP2Z5FI91F7YC3FBL9SPJQQ,338054,338054,1,0.03,"""",200.5,0,"<div id=""message-div""><p>Please read this carefully. The instructions will be shown again now.</p><p>Click the ""Continue"" button to continue.</p></div>","""","""","""","""","""","""","""","""","2021-12-31 03:42:06",67.180.106.232,"Mozilla/5.0 (Windows NT 10.0; Win64; x64) AppleWebKit/537.36 (KHTML, like Gecko) Chrome/96.0.4664.110 Safari/537.36",WebKit,Chrome,96.0.4664.110,Windows,10.0,ac0f2dffeffaa78d35a552e03d03f0a8
19,1,"""",pre-exp,instructionspage5,instructions,23,35569,0.0-5.9-0.9,3SD15I2WEBVYX2RZ7BNPTJHHA9P63F,A3774HPOUKYTX7,34X6J5FLP2Z5FI91F7YC3FBL9SPJQQ,LJX44,LJX44,34X6J5FLP2Z5FI91F7YC3FBL9SPJQQ,34X6J5FLP2Z5FI91F7YC3FBL9SPJQQ,338054,338054,1,0.03,"[{""page_index"":0,""viewing_time"":2168.199999809265}]",2168.5,"""","""","""","""","""","""","""","""","""","""","2021-12-31 03:42:06",67.180.106.232,"Mozilla/5.0 (Windows NT 10.0; Win64; x64) AppleWebKit/537.36 (KHTML, like Gecko) Chrome/96.0.4664.110 Safari/537.36",WebKit,Chrome,96.0.4664.110,Windows,10.0,ac0f2dffeffaa78d35a552e03d03f0a8
19,1,"""",pre-exp,repeat_instructions_conditionalpage5,html-button-response,24,41133,0.0-5.9-1.9-0.9,3SD15I2WEBVYX2RZ7BNPTJHHA9P63F,A3774HPOUKYTX7,34X6J5FLP2Z5FI91F7YC3FBL9SPJQQ,LJX44,LJX44,34X6J5FLP2Z5FI91F7YC3FBL9SPJQQ,34X6J5FLP2Z5FI91F7YC3FBL9SPJQQ,338054,338054,1,0.03,"""",5562.699999809265,0,"<div id=""message-div""><p>Please read this carefully. The instructions will be shown again now.</p><p>Click the ""Continue"" button to continue.</p></div>","""","""","""","""","""","""","""","""","2021-12-31 03:42:06",67.180.106.232,"Mozilla/5.0 (Windows NT 10.0; Win64; x64) AppleWebKit/537.36 (KHTML, like Gecko) Chrome/96.0.4664.110 Safari/537.36",WebKit,Chrome,96.0.4664.110,Windows,10.0,ac0f2dffeffaa78d35a552e03d03f0a8
19,1,"""",pre-exp,instructionspage5,instructions,25,47011,0.0-5.10-0.10,3SD15I2WEBVYX2RZ7BNPTJHHA9P63F,A3774HPOUKYTX7,34X6J5FLP2Z5FI91F7YC3FBL9SPJQQ,LJX44,LJX44,34X6J5FLP2Z5FI91F7YC3FBL9SPJQQ,34X6J5FLP2Z5FI91F7YC3FBL9SPJQQ,338054,338054,1,0.03,"[{""page_index"":0,""viewing_time"":5874.099999904633}]",5874.299999713898,"""","""","""","""","""","""","""","""","""","""","2021-12-31 03:42:06",67.180.106.232,"Mozilla/5.0 (Windows NT 10.0; Win64; x64) AppleWebKit/537.36 (KHTML, like Gecko) Chrome/96.0.4664.110 Safari/537.36",WebKit,Chrome,96.0.4664.110,Windows,10.0,ac0f2dffeffaa78d35a552e03d03f0a8
19,1,"""",pre-exp,instructionspage6,instructions,26,49360,0.0-6.0-0.0,3SD15I2WEBVYX2RZ7BNPTJHHA9P63F,A3774HPOUKYTX7,34X6J5FLP2Z5FI91F7YC3FBL9SPJQQ,LJX44,LJX44,34X6J5FLP2Z5FI91F7YC3FBL9SPJQQ,34X6J5FLP2Z5FI91F7YC3FBL9SPJQQ,338054,338054,1,0.03,"[{""page_index"":0,""viewing_time"":2347.3999996185303}]",2347.5999999046326,"""","""","""","""","""","""","""","""","""","""","2021-12-31 03:42:06",67.180.106.232,"Mozilla/5.0 (Windows NT 10.0; Win64; x64) AppleWebKit/537.36 (KHTML, like Gecko) Chrome/96.0.4664.110 Safari/537.36",WebKit,Chrome,96.0.4664.110,Windows,10.0,ac0f2dffeffaa78d35a552e03d03f0a8
19,1,"""",pre-exp,instructionspage7,instructions,27,54955,0.0-7.0-0.0,3SD15I2WEBVYX2RZ7BNPTJHHA9P63F,A3774HPOUKYTX7,34X6J5FLP2Z5FI91F7YC3FBL9SPJQQ,LJX44,LJX44,34X6J5FLP2Z5FI91F7YC3FBL9SPJQQ,34X6J5FLP2Z5FI91F7YC3FBL9SPJQQ,338054,338054,1,0.03,"[{""page_index"":0,""viewing_time"":5592.199999809265}]",5592.5,"""","""","""","""","""","""","""","""","""","""","2021-12-31 03:42:06",67.180.106.232,"Mozilla/5.0 (Windows NT 10.0; Win64; x64) AppleWebKit/537.36 (KHTML, like Gecko) Chrome/96.0.4664.110 Safari/537.36",WebKit,Chrome,96.0.4664.110,Windows,10.0,ac0f2dffeffaa78d35a552e03d03f0a8
19,1,"""",pre-exp,instructionspage8,instructions,28,58590,0.0-8.0-0.0,3SD15I2WEBVYX2RZ7BNPTJHHA9P63F,A3774HPOUKYTX7,34X6J5FLP2Z5FI91F7YC3FBL9SPJQQ,LJX44,LJX44,34X6J5FLP2Z5FI91F7YC3FBL9SPJQQ,34X6J5FLP2Z5FI91F7YC3FBL9SPJQQ,338054,338054,1,0.03,"[{""page_index"":0,""viewing_time"":3634.4000000953674}]",3634.699999809265,"""","""","""","""","""","""","""","""","""","""","2021-12-31 03:42:06",67.180.106.232,"Mozilla/5.0 (Windows NT 10.0; Win64; x64) AppleWebKit/537.36 (KHTML, like Gecko) Chrome/96.0.4664.110 Safari/537.36",WebKit,Chrome,96.0.4664.110,Windows,10.0,ac0f2dffeffaa78d35a552e03d03f0a8
19,1,"""",practice_procedure,fixation,html-keyboard-response,29,59096,0.0-9.0-0.0-0.0,3SD15I2WEBVYX2RZ7BNPTJHHA9P63F,A3774HPOUKYTX7,34X6J5FLP2Z5FI91F7YC3FBL9SPJQQ,LJX44,LJX44,34X6J5FLP2Z5FI91F7YC3FBL9SPJQQ,34X6J5FLP2Z5FI91F7YC3FBL9SPJQQ,338054,338054,1,0.03,"""",null,null,"<div class = fixationbox><div class = fixation>+</div></div>","""","""","""","""","""","""","""","""","2021-12-31 03:42:06",67.180.106.232,"Mozilla/5.0 (Windows NT 10.0; Win64; x64) AppleWebKit/537.36 (KHTML, like Gecko) Chrome/96.0.4664.110 Safari/537.36",WebKit,Chrome,96.0.4664.110,Windows,10.0,ac0f2dffeffaa78d35a552e03d03f0a8
19,1,"""",practice_procedure,stim_practice,canvas-button-response,30,60897,0.0-9.0-0.0-1.0,3SD15I2WEBVYX2RZ7BNPTJHHA9P63F,A3774HPOUKYTX7,34X6J5FLP2Z5FI91F7YC3FBL9SPJQQ,LJX44,LJX44,34X6J5FLP2Z5FI91F7YC3FBL9SPJQQ,34X6J5FLP2Z5FI91F7YC3FBL9SPJQQ,338054,338054,1,0.03,"""",1647,0,practiceStim4,0,Counter-clockwise,true,"""",0.3,120,0.99,"""","2021-12-31 03:42:06",67.180.106.232,"Mozilla/5.0 (Windows NT 10.0; Win64; x64) AppleWebKit/537.36 (KHTML, like Gecko) Chrome/96.0.4664.110 Safari/537.36",WebKit,Chrome,96.0.4664.110,Windows,10.0,ac0f2dffeffaa78d35a552e03d03f0a8
19,1,"""",practice_procedure,confidence_rating,html-slider-response,31,63008,0.0-9.0-0.0-2.0,3SD15I2WEBVYX2RZ7BNPTJHHA9P63F,A3774HPOUKYTX7,34X6J5FLP2Z5FI91F7YC3FBL9SPJQQ,LJX44,LJX44,34X6J5FLP2Z5FI91F7YC3FBL9SPJQQ,34X6J5FLP2Z5FI91F7YC3FBL9SPJQQ,338054,338054,1,0.03,"""",2108.5999999046326,51,"<div id=""message-div""><p>How confident are you that your clockwise/counter-clockwise response just now was accurate? Please rate your confidence on the slider bar below.</p></div>","""","""","""",50,"""","""","""",51,"2021-12-31 03:42:06",67.180.106.232,"Mozilla/5.0 (Windows NT 10.0; Win64; x64) AppleWebKit/537.36 (KHTML, like Gecko) Chrome/96.0.4664.110 Safari/537.36",WebKit,Chrome,96.0.4664.110,Windows,10.0,ac0f2dffeffaa78d35a552e03d03f0a8
19,1,"""",practice_procedure,fixation,html-keyboard-response,32,63512,0.0-9.0-0.0-0.1,3SD15I2WEBVYX2RZ7BNPTJHHA9P63F,A3774HPOUKYTX7,34X6J5FLP2Z5FI91F7YC3FBL9SPJQQ,LJX44,LJX44,34X6J5FLP2Z5FI91F7YC3FBL9SPJQQ,34X6J5FLP2Z5FI91F7YC3FBL9SPJQQ,338054,338054,1,0.03,"""",null,null,"<div class = fixationbox><div class = fixation>+</div></div>","""","""","""","""","""","""","""","""","2021-12-31 03:42:06",67.180.106.232,"Mozilla/5.0 (Windows NT 10.0; Win64; x64) AppleWebKit/537.36 (KHTML, like Gecko) Chrome/96.0.4664.110 Safari/537.36",WebKit,Chrome,96.0.4664.110,Windows,10.0,ac0f2dffeffaa78d35a552e03d03f0a8
19,1,"""",practice_procedure,stim_practice,canvas-button-response,33,65002,0.0-9.0-0.0-1.1,3SD15I2WEBVYX2RZ7BNPTJHHA9P63F,A3774HPOUKYTX7,34X6J5FLP2Z5FI91F7YC3FBL9SPJQQ,LJX44,LJX44,34X6J5FLP2Z5FI91F7YC3FBL9SPJQQ,34X6J5FLP2Z5FI91F7YC3FBL9SPJQQ,338054,338054,1,0.03,"""",1380,1,practiceStim4,0,Counter-clockwise,false,"""",0.3,120,0.99,"""","2021-12-31 03:42:06",67.180.106.232,"Mozilla/5.0 (Windows NT 10.0; Win64; x64) AppleWebKit/537.36 (KHTML, like Gecko) Chrome/96.0.4664.110 Safari/537.36",WebKit,Chrome,96.0.4664.110,Windows,10.0,ac0f2dffeffaa78d35a552e03d03f0a8
19,1,"""",practice_procedure,confidence_rating,html-slider-response,34,67211,0.0-9.0-0.0-2.1,3SD15I2WEBVYX2RZ7BNPTJHHA9P63F,A3774HPOUKYTX7,34X6J5FLP2Z5FI91F7YC3FBL9SPJQQ,LJX44,LJX44,34X6J5FLP2Z5FI91F7YC3FBL9SPJQQ,34X6J5FLP2Z5FI91F7YC3FBL9SPJQQ,338054,338054,1,0.03,"""",2206,56,"<div id=""message-div""><p>How confident are you that your clockwise/counter-clockwise response just now was accurate? Please rate your confidence on the slider bar below.</p></div>","""","""","""",50,"""","""","""",56,"2021-12-31 03:42:06",67.180.106.232,"Mozilla/5.0 (Windows NT 10.0; Win64; x64) AppleWebKit/537.36 (KHTML, like Gecko) Chrome/96.0.4664.110 Safari/537.36",WebKit,Chrome,96.0.4664.110,Windows,10.0,ac0f2dffeffaa78d35a552e03d03f0a8
19,1,"""",practice_procedure,fixation,html-keyboard-response,35,67713,0.0-9.0-0.0-0.2,3SD15I2WEBVYX2RZ7BNPTJHHA9P63F,A3774HPOUKYTX7,34X6J5FLP2Z5FI91F7YC3FBL9SPJQQ,LJX44,LJX44,34X6J5FLP2Z5FI91F7YC3FBL9SPJQQ,34X6J5FLP2Z5FI91F7YC3FBL9SPJQQ,338054,338054,1,0.03,"""",null,null,"<div class = fixationbox><div class = fixation>+</div></div>","""","""","""","""","""","""","""","""","2021-12-31 03:42:06",67.180.106.232,"Mozilla/5.0 (Windows NT 10.0; Win64; x64) AppleWebKit/537.36 (KHTML, like Gecko) Chrome/96.0.4664.110 Safari/537.36",WebKit,Chrome,96.0.4664.110,Windows,10.0,ac0f2dffeffaa78d35a552e03d03f0a8
19,1,"""",practice_procedure,stim_practice,canvas-button-response,36,68865,0.0-9.0-0.0-1.2,3SD15I2WEBVYX2RZ7BNPTJHHA9P63F,A3774HPOUKYTX7,34X6J5FLP2Z5FI91F7YC3FBL9SPJQQ,LJX44,LJX44,34X6J5FLP2Z5FI91F7YC3FBL9SPJQQ,34X6J5FLP2Z5FI91F7YC3FBL9SPJQQ,338054,338054,1,0.03,"""",1046.9000000953674,0,practiceStim4,0,Counter-clockwise,true,"""",0.3,120,0.99,"""","2021-12-31 03:42:06",67.180.106.232,"Mozilla/5.0 (Windows NT 10.0; Win64; x64) AppleWebKit/537.36 (KHTML, like Gecko) Chrome/96.0.4664.110 Safari/537.36",WebKit,Chrome,96.0.4664.110,Windows,10.0,ac0f2dffeffaa78d35a552e03d03f0a8
19,1,"""",practice_procedure,confidence_rating,html-slider-response,37,71022,0.0-9.0-0.0-2.2,3SD15I2WEBVYX2RZ7BNPTJHHA9P63F,A3774HPOUKYTX7,34X6J5FLP2Z5FI91F7YC3FBL9SPJQQ,LJX44,LJX44,34X6J5FLP2Z5FI91F7YC3FBL9SPJQQ,34X6J5FLP2Z5FI91F7YC3FBL9SPJQQ,338054,338054,1,0.03,"""",2155.6000003814697,44,"<div id=""message-div""><p>How confident are you that your clockwise/counter-clockwise response just now was accurate? Please rate your confidence on the slider bar below.</p></div>","""","""","""",50,"""","""","""",44,"2021-12-31 03:42:06",67.180.106.232,"Mozilla/5.0 (Windows NT 10.0; Win64; x64) AppleWebKit/537.36 (KHTML, like Gecko) Chrome/96.0.4664.110 Safari/537.36",WebKit,Chrome,96.0.4664.110,Windows,10.0,ac0f2dffeffaa78d35a552e03d03f0a8
19,1,"""",practice_procedure,fixation,html-keyboard-response,38,71527,0.0-9.0-0.0-0.3,3SD15I2WEBVYX2RZ7BNPTJHHA9P63F,A3774HPOUKYTX7,34X6J5FLP2Z5FI91F7YC3FBL9SPJQQ,LJX44,LJX44,34X6J5FLP2Z5FI91F7YC3FBL9SPJQQ,34X6J5FLP2Z5FI91F7YC3FBL9SPJQQ,338054,338054,1,0.03,"""",null,null,"<div class = fixationbox><div class = fixation>+</div></div>","""","""","""","""","""","""","""","""","2021-12-31 03:42:06",67.180.106.232,"Mozilla/5.0 (Windows NT 10.0; Win64; x64) AppleWebKit/537.36 (KHTML, like Gecko) Chrome/96.0.4664.110 Safari/537.36",WebKit,Chrome,96.0.4664.110,Windows,10.0,ac0f2dffeffaa78d35a552e03d03f0a8
19,1,"""",practice_procedure,stim_practice,canvas-button-response,39,73962,0.0-9.0-0.0-1.3,3SD15I2WEBVYX2RZ7BNPTJHHA9P63F,A3774HPOUKYTX7,34X6J5FLP2Z5FI91F7YC3FBL9SPJQQ,LJX44,LJX44,34X6J5FLP2Z5FI91F7YC3FBL9SPJQQ,34X6J5FLP2Z5FI91F7YC3FBL9SPJQQ,338054,338054,1,0.03,"""",2343,0,practiceStim2,0,Counter-clockwise,true,"""",0.01,120,0.99,"""","2021-12-31 03:42:06",67.180.106.232,"Mozilla/5.0 (Windows NT 10.0; Win64; x64) AppleWebKit/537.36 (KHTML, like Gecko) Chrome/96.0.4664.110 Safari/537.36",WebKit,Chrome,96.0.4664.110,Windows,10.0,ac0f2dffeffaa78d35a552e03d03f0a8
19,1,"""",practice_procedure,confidence_rating,html-slider-response,40,75342,0.0-9.0-0.0-2.3,3SD15I2WEBVYX2RZ7BNPTJHHA9P63F,A3774HPOUKYTX7,34X6J5FLP2Z5FI91F7YC3FBL9SPJQQ,LJX44,LJX44,34X6J5FLP2Z5FI91F7YC3FBL9SPJQQ,34X6J5FLP2Z5FI91F7YC3FBL9SPJQQ,338054,338054,1,0.03,"""",1379.2999997138977,50,"<div id=""message-div""><p>How confident are you that your clockwise/counter-clockwise response just now was accurate? Please rate your confidence on the slider bar below.</p></div>","""","""","""",50,"""","""","""",50,"2021-12-31 03:42:06",67.180.106.232,"Mozilla/5.0 (Windows NT 10.0; Win64; x64) AppleWebKit/537.36 (KHTML, like Gecko) Chrome/96.0.4664.110 Safari/537.36",WebKit,Chrome,96.0.4664.110,Windows,10.0,ac0f2dffeffaa78d35a552e03d03f0a8
19,1,"""",practice_procedure,fixation,html-keyboard-response,41,75844,0.0-9.0-0.0-0.4,3SD15I2WEBVYX2RZ7BNPTJHHA9P63F,A3774HPOUKYTX7,34X6J5FLP2Z5FI91F7YC3FBL9SPJQQ,LJX44,LJX44,34X6J5FLP2Z5FI91F7YC3FBL9SPJQQ,34X6J5FLP2Z5FI91F7YC3FBL9SPJQQ,338054,338054,1,0.03,"""",null,null,"<div class = fixationbox><div class = fixation>+</div></div>","""","""","""","""","""","""","""","""","2021-12-31 03:42:06",67.180.106.232,"Mozilla/5.0 (Windows NT 10.0; Win64; x64) AppleWebKit/537.36 (KHTML, like Gecko) Chrome/96.0.4664.110 Safari/537.36",WebKit,Chrome,96.0.4664.110,Windows,10.0,ac0f2dffeffaa78d35a552e03d03f0a8
19,1,"""",practice_procedure,stim_practice,canvas-button-response,42,76802,0.0-9.0-0.0-1.4,3SD15I2WEBVYX2RZ7BNPTJHHA9P63F,A3774HPOUKYTX7,34X6J5FLP2Z5FI91F7YC3FBL9SPJQQ,LJX44,LJX44,34X6J5FLP2Z5FI91F7YC3FBL9SPJQQ,34X6J5FLP2Z5FI91F7YC3FBL9SPJQQ,338054,338054,1,0.03,"""",889.7000002861023,1,practiceStim1,1,Clockwise,true,"""",0.01,60,0.99,"""","2021-12-31 03:42:06",67.180.106.232,"Mozilla/5.0 (Windows NT 10.0; Win64; x64) AppleWebKit/537.36 (KHTML, like Gecko) Chrome/96.0.4664.110 Safari/537.36",WebKit,Chrome,96.0.4664.110,Windows,10.0,ac0f2dffeffaa78d35a552e03d03f0a8
19,1,"""",practice_procedure,confidence_rating,html-slider-response,43,78867,0.0-9.0-0.0-2.4,3SD15I2WEBVYX2RZ7BNPTJHHA9P63F,A3774HPOUKYTX7,34X6J5FLP2Z5FI91F7YC3FBL9SPJQQ,LJX44,LJX44,34X6J5FLP2Z5FI91F7YC3FBL9SPJQQ,34X6J5FLP2Z5FI91F7YC3FBL9SPJQQ,338054,338054,1,0.03,"""",2061.199999809265,55,"<div id=""message-div""><p>How confident are you that your clockwise/counter-clockwise response just now was accurate? Please rate your confidence on the slider bar below.</p></div>","""","""","""",50,"""","""","""",55,"2021-12-31 03:42:06",67.180.106.232,"Mozilla/5.0 (Windows NT 10.0; Win64; x64) AppleWebKit/537.36 (KHTML, like Gecko) Chrome/96.0.4664.110 Safari/537.36",WebKit,Chrome,96.0.4664.110,Windows,10.0,ac0f2dffeffaa78d35a552e03d03f0a8
19,1,"""",practice_procedure,fixation,html-keyboard-response,44,79369,0.0-9.0-0.0-0.5,3SD15I2WEBVYX2RZ7BNPTJHHA9P63F,A3774HPOUKYTX7,34X6J5FLP2Z5FI91F7YC3FBL9SPJQQ,LJX44,LJX44,34X6J5FLP2Z5FI91F7YC3FBL9SPJQQ,34X6J5FLP2Z5FI91F7YC3FBL9SPJQQ,338054,338054,1,0.03,"""",null,null,"<div class = fixationbox><div class = fixation>+</div></div>","""","""","""","""","""","""","""","""","2021-12-31 03:42:06",67.180.106.232,"Mozilla/5.0 (Windows NT 10.0; Win64; x64) AppleWebKit/537.36 (KHTML, like Gecko) Chrome/96.0.4664.110 Safari/537.36",WebKit,Chrome,96.0.4664.110,Windows,10.0,ac0f2dffeffaa78d35a552e03d03f0a8
19,1,"""",practice_procedure,stim_practice,canvas-button-response,45,81486,0.0-9.0-0.0-1.5,3SD15I2WEBVYX2RZ7BNPTJHHA9P63F,A3774HPOUKYTX7,34X6J5FLP2Z5FI91F7YC3FBL9SPJQQ,LJX44,LJX44,34X6J5FLP2Z5FI91F7YC3FBL9SPJQQ,34X6J5FLP2Z5FI91F7YC3FBL9SPJQQ,338054,338054,1,0.03,"""",2021.6999998092651,1,practiceStim3,1,Clockwise,true,"""",0.3,60,0.99,"""","2021-12-31 03:42:06",67.180.106.232,"Mozilla/5.0 (Windows NT 10.0; Win64; x64) AppleWebKit/537.36 (KHTML, like Gecko) Chrome/96.0.4664.110 Safari/537.36",WebKit,Chrome,96.0.4664.110,Windows,10.0,ac0f2dffeffaa78d35a552e03d03f0a8
19,1,"""",practice_procedure,confidence_rating,html-slider-response,46,83204,0.0-9.0-0.0-2.5,3SD15I2WEBVYX2RZ7BNPTJHHA9P63F,A3774HPOUKYTX7,34X6J5FLP2Z5FI91F7YC3FBL9SPJQQ,LJX44,LJX44,34X6J5FLP2Z5FI91F7YC3FBL9SPJQQ,34X6J5FLP2Z5FI91F7YC3FBL9SPJQQ,338054,338054,1,0.03,"""",1716.5999999046326,52,"<div id=""message-div""><p>How confident are you that your clockwise/counter-clockwise response just now was accurate? Please rate your confidence on the slider bar below.</p></div>","""","""","""",50,"""","""","""",52,"2021-12-31 03:42:06",67.180.106.232,"Mozilla/5.0 (Windows NT 10.0; Win64; x64) AppleWebKit/537.36 (KHTML, like Gecko) Chrome/96.0.4664.110 Safari/537.36",WebKit,Chrome,96.0.4664.110,Windows,10.0,ac0f2dffeffaa78d35a552e03d03f0a8
19,1,"""",practice_procedure,fixation,html-keyboard-response,47,83709,0.0-9.0-0.0-0.6,3SD15I2WEBVYX2RZ7BNPTJHHA9P63F,A3774HPOUKYTX7,34X6J5FLP2Z5FI91F7YC3FBL9SPJQQ,LJX44,LJX44,34X6J5FLP2Z5FI91F7YC3FBL9SPJQQ,34X6J5FLP2Z5FI91F7YC3FBL9SPJQQ,338054,338054,1,0.03,"""",null,null,"<div class = fixationbox><div class = fixation>+</div></div>","""","""","""","""","""","""","""","""","2021-12-31 03:42:06",67.180.106.232,"Mozilla/5.0 (Windows NT 10.0; Win64; x64) AppleWebKit/537.36 (KHTML, like Gecko) Chrome/96.0.4664.110 Safari/537.36",WebKit,Chrome,96.0.4664.110,Windows,10.0,ac0f2dffeffaa78d35a552e03d03f0a8
19,1,"""",practice_procedure,stim_practice,canvas-button-response,48,85890,0.0-9.0-0.0-1.6,3SD15I2WEBVYX2RZ7BNPTJHHA9P63F,A3774HPOUKYTX7,34X6J5FLP2Z5FI91F7YC3FBL9SPJQQ,LJX44,LJX44,34X6J5FLP2Z5FI91F7YC3FBL9SPJQQ,34X6J5FLP2Z5FI91F7YC3FBL9SPJQQ,338054,338054,1,0.03,"""",2098.7000002861023,1,practiceStim3,1,Clockwise,true,"""",0.3,60,0.99,"""","2021-12-31 03:42:06",67.180.106.232,"Mozilla/5.0 (Windows NT 10.0; Win64; x64) AppleWebKit/537.36 (KHTML, like Gecko) Chrome/96.0.4664.110 Safari/537.36",WebKit,Chrome,96.0.4664.110,Windows,10.0,ac0f2dffeffaa78d35a552e03d03f0a8
19,1,"""",practice_procedure,confidence_rating,html-slider-response,49,87460,0.0-9.0-0.0-2.6,3SD15I2WEBVYX2RZ7BNPTJHHA9P63F,A3774HPOUKYTX7,34X6J5FLP2Z5FI91F7YC3FBL9SPJQQ,LJX44,LJX44,34X6J5FLP2Z5FI91F7YC3FBL9SPJQQ,34X6J5FLP2Z5FI91F7YC3FBL9SPJQQ,338054,338054,1,0.03,"""",1568.6000003814697,65,"<div id=""message-div""><p>How confident are you that your clockwise/counter-clockwise response just now was accurate? Please rate your confidence on the slider bar below.</p></div>","""","""","""",50,"""","""","""",65,"2021-12-31 03:42:06",67.180.106.232,"Mozilla/5.0 (Windows NT 10.0; Win64; x64) AppleWebKit/537.36 (KHTML, like Gecko) Chrome/96.0.4664.110 Safari/537.36",WebKit,Chrome,96.0.4664.110,Windows,10.0,ac0f2dffeffaa78d35a552e03d03f0a8
19,1,"""",practice_procedure,fixation,html-keyboard-response,50,87962,0.0-9.0-0.0-0.7,3SD15I2WEBVYX2RZ7BNPTJHHA9P63F,A3774HPOUKYTX7,34X6J5FLP2Z5FI91F7YC3FBL9SPJQQ,LJX44,LJX44,34X6J5FLP2Z5FI91F7YC3FBL9SPJQQ,34X6J5FLP2Z5FI91F7YC3FBL9SPJQQ,338054,338054,1,0.03,"""",null,null,"<div class = fixationbox><div class = fixation>+</div></div>","""","""","""","""","""","""","""","""","2021-12-31 03:42:06",67.180.106.232,"Mozilla/5.0 (Windows NT 10.0; Win64; x64) AppleWebKit/537.36 (KHTML, like Gecko) Chrome/96.0.4664.110 Safari/537.36",WebKit,Chrome,96.0.4664.110,Windows,10.0,ac0f2dffeffaa78d35a552e03d03f0a8
19,1,"""",practice_procedure,stim_practice,canvas-button-response,51,88818,0.0-9.0-0.0-1.7,3SD15I2WEBVYX2RZ7BNPTJHHA9P63F,A3774HPOUKYTX7,34X6J5FLP2Z5FI91F7YC3FBL9SPJQQ,LJX44,LJX44,34X6J5FLP2Z5FI91F7YC3FBL9SPJQQ,34X6J5FLP2Z5FI91F7YC3FBL9SPJQQ,338054,338054,1,0.03,"""",754.6000003814697,1,practiceStim3,1,Clockwise,true,"""",0.3,60,0.99,"""","2021-12-31 03:42:06",67.180.106.232,"Mozilla/5.0 (Windows NT 10.0; Win64; x64) AppleWebKit/537.36 (KHTML, like Gecko) Chrome/96.0.4664.110 Safari/537.36",WebKit,Chrome,96.0.4664.110,Windows,10.0,ac0f2dffeffaa78d35a552e03d03f0a8
19,1,"""",practice_procedure,confidence_rating,html-slider-response,52,91159,0.0-9.0-0.0-2.7,3SD15I2WEBVYX2RZ7BNPTJHHA9P63F,A3774HPOUKYTX7,34X6J5FLP2Z5FI91F7YC3FBL9SPJQQ,LJX44,LJX44,34X6J5FLP2Z5FI91F7YC3FBL9SPJQQ,34X6J5FLP2Z5FI91F7YC3FBL9SPJQQ,338054,338054,1,0.03,"""",2337.199999809265,67,"<div id=""message-div""><p>How confident are you that your clockwise/counter-clockwise response just now was accurate? Please rate your confidence on the slider bar below.</p></div>","""","""","""",50,"""","""","""",67,"2021-12-31 03:42:06",67.180.106.232,"Mozilla/5.0 (Windows NT 10.0; Win64; x64) AppleWebKit/537.36 (KHTML, like Gecko) Chrome/96.0.4664.110 Safari/537.36",WebKit,Chrome,96.0.4664.110,Windows,10.0,ac0f2dffeffaa78d35a552e03d03f0a8
19,1,"""",practice_procedure,fixation,html-keyboard-response,53,91662,0.0-9.0-0.0-0.8,3SD15I2WEBVYX2RZ7BNPTJHHA9P63F,A3774HPOUKYTX7,34X6J5FLP2Z5FI91F7YC3FBL9SPJQQ,LJX44,LJX44,34X6J5FLP2Z5FI91F7YC3FBL9SPJQQ,34X6J5FLP2Z5FI91F7YC3FBL9SPJQQ,338054,338054,1,0.03,"""",null,null,"<div class = fixationbox><div class = fixation>+</div></div>","""","""","""","""","""","""","""","""","2021-12-31 03:42:06",67.180.106.232,"Mozilla/5.0 (Windows NT 10.0; Win64; x64) AppleWebKit/537.36 (KHTML, like Gecko) Chrome/96.0.4664.110 Safari/537.36",WebKit,Chrome,96.0.4664.110,Windows,10.0,ac0f2dffeffaa78d35a552e03d03f0a8
19,1,"""",practice_procedure,stim_practice,canvas-button-response,54,92604,0.0-9.0-0.0-1.8,3SD15I2WEBVYX2RZ7BNPTJHHA9P63F,A3774HPOUKYTX7,34X6J5FLP2Z5FI91F7YC3FBL9SPJQQ,LJX44,LJX44,34X6J5FLP2Z5FI91F7YC3FBL9SPJQQ,34X6J5FLP2Z5FI91F7YC3FBL9SPJQQ,338054,338054,1,0.03,"""",884.9000000953674,1,practiceStim1,1,Clockwise,true,"""",0.01,60,0.99,"""","2021-12-31 03:42:06",67.180.106.232,"Mozilla/5.0 (Windows NT 10.0; Win64; x64) AppleWebKit/537.36 (KHTML, like Gecko) Chrome/96.0.4664.110 Safari/537.36",WebKit,Chrome,96.0.4664.110,Windows,10.0,ac0f2dffeffaa78d35a552e03d03f0a8
19,1,"""",practice_procedure,confidence_rating,html-slider-response,55,94792,0.0-9.0-0.0-2.8,3SD15I2WEBVYX2RZ7BNPTJHHA9P63F,A3774HPOUKYTX7,34X6J5FLP2Z5FI91F7YC3FBL9SPJQQ,LJX44,LJX44,34X6J5FLP2Z5FI91F7YC3FBL9SPJQQ,34X6J5FLP2Z5FI91F7YC3FBL9SPJQQ,338054,338054,1,0.03,"""",2186.0999999046326,61,"<div id=""message-div""><p>How confident are you that your clockwise/counter-clockwise response just now was accurate? Please rate your confidence on the slider bar below.</p></div>","""","""","""",50,"""","""","""",61,"2021-12-31 03:42:06",67.180.106.232,"Mozilla/5.0 (Windows NT 10.0; Win64; x64) AppleWebKit/537.36 (KHTML, like Gecko) Chrome/96.0.4664.110 Safari/537.36",WebKit,Chrome,96.0.4664.110,Windows,10.0,ac0f2dffeffaa78d35a552e03d03f0a8
19,1,"""",practice_procedure,fixation,html-keyboard-response,56,95297,0.0-9.0-0.0-0.9,3SD15I2WEBVYX2RZ7BNPTJHHA9P63F,A3774HPOUKYTX7,34X6J5FLP2Z5FI91F7YC3FBL9SPJQQ,LJX44,LJX44,34X6J5FLP2Z5FI91F7YC3FBL9SPJQQ,34X6J5FLP2Z5FI91F7YC3FBL9SPJQQ,338054,338054,1,0.03,"""",null,null,"<div class = fixationbox><div class = fixation>+</div></div>","""","""","""","""","""","""","""","""","2021-12-31 03:42:06",67.180.106.232,"Mozilla/5.0 (Windows NT 10.0; Win64; x64) AppleWebKit/537.36 (KHTML, like Gecko) Chrome/96.0.4664.110 Safari/537.36",WebKit,Chrome,96.0.4664.110,Windows,10.0,ac0f2dffeffaa78d35a552e03d03f0a8
19,1,"""",practice_procedure,stim_practice,canvas-button-response,57,96871,0.0-9.0-0.0-1.9,3SD15I2WEBVYX2RZ7BNPTJHHA9P63F,A3774HPOUKYTX7,34X6J5FLP2Z5FI91F7YC3FBL9SPJQQ,LJX44,LJX44,34X6J5FLP2Z5FI91F7YC3FBL9SPJQQ,34X6J5FLP2Z5FI91F7YC3FBL9SPJQQ,338054,338054,1,0.03,"""",1501.7000002861023,0,practiceStim4,0,Counter-clockwise,true,"""",0.3,120,0.99,"""","2021-12-31 03:42:06",67.180.106.232,"Mozilla/5.0 (Windows NT 10.0; Win64; x64) AppleWebKit/537.36 (KHTML, like Gecko) Chrome/96.0.4664.110 Safari/537.36",WebKit,Chrome,96.0.4664.110,Windows,10.0,ac0f2dffeffaa78d35a552e03d03f0a8
19,1,"""",practice_procedure,confidence_rating,html-slider-response,58,98613,0.0-9.0-0.0-2.9,3SD15I2WEBVYX2RZ7BNPTJHHA9P63F,A3774HPOUKYTX7,34X6J5FLP2Z5FI91F7YC3FBL9SPJQQ,LJX44,LJX44,34X6J5FLP2Z5FI91F7YC3FBL9SPJQQ,34X6J5FLP2Z5FI91F7YC3FBL9SPJQQ,338054,338054,1,0.03,"""",1740.8000001907349,64,"<div id=""message-div""><p>How confident are you that your clockwise/counter-clockwise response just now was accurate? Please rate your confidence on the slider bar below.</p></div>","""","""","""",50,"""","""","""",64,"2021-12-31 03:42:06",67.180.106.232,"Mozilla/5.0 (Windows NT 10.0; Win64; x64) AppleWebKit/537.36 (KHTML, like Gecko) Chrome/96.0.4664.110 Safari/537.36",WebKit,Chrome,96.0.4664.110,Windows,10.0,ac0f2dffeffaa78d35a552e03d03f0a8
19,1,"""",pre-test,test_instruction,instructions,59,101564,0.0-10.0,3SD15I2WEBVYX2RZ7BNPTJHHA9P63F,A3774HPOUKYTX7,34X6J5FLP2Z5FI91F7YC3FBL9SPJQQ,LJX44,LJX44,34X6J5FLP2Z5FI91F7YC3FBL9SPJQQ,34X6J5FLP2Z5FI91F7YC3FBL9SPJQQ,338054,338054,1,0.03,"[{""page_index"":0,""viewing_time"":2949}]",2949.199999809265,"""","""","""","""","""","""","""","""","""","""","2021-12-31 03:42:06",67.180.106.232,"Mozilla/5.0 (Windows NT 10.0; Win64; x64) AppleWebKit/537.36 (KHTML, like Gecko) Chrome/96.0.4664.110 Safari/537.36",WebKit,Chrome,96.0.4664.110,Windows,10.0,ac0f2dffeffaa78d35a552e03d03f0a8
19,1,"""",test_procedure,fixation,html-keyboard-response,60,102069,0.0-11.0-0.0-0.0,3SD15I2WEBVYX2RZ7BNPTJHHA9P63F,A3774HPOUKYTX7,34X6J5FLP2Z5FI91F7YC3FBL9SPJQQ,LJX44,LJX44,34X6J5FLP2Z5FI91F7YC3FBL9SPJQQ,34X6J5FLP2Z5FI91F7YC3FBL9SPJQQ,338054,338054,1,0.03,"""",null,null,"<div class = fixationbox><div class = fixation>+</div></div>","""","""","""","""","""","""","""","""","2021-12-31 03:42:06",67.180.106.232,"Mozilla/5.0 (Windows NT 10.0; Win64; x64) AppleWebKit/537.36 (KHTML, like Gecko) Chrome/96.0.4664.110 Safari/537.36",WebKit,Chrome,96.0.4664.110,Windows,10.0,ac0f2dffeffaa78d35a552e03d03f0a8
19,1,"""",test_procedure,stim_test,canvas-button-response,61,103352,0.0-11.0-0.0-1.0,3SD15I2WEBVYX2RZ7BNPTJHHA9P63F,A3774HPOUKYTX7,34X6J5FLP2Z5FI91F7YC3FBL9SPJQQ,LJX44,LJX44,34X6J5FLP2Z5FI91F7YC3FBL9SPJQQ,34X6J5FLP2Z5FI91F7YC3FBL9SPJQQ,338054,338054,1,0.03,"""",1193.2999997138977,1,catchStim4,0,Counter-clockwise,false,"""",0.01,120,0.001,"""","2021-12-31 03:42:06",67.180.106.232,"Mozilla/5.0 (Windows NT 10.0; Win64; x64) AppleWebKit/537.36 (KHTML, like Gecko) Chrome/96.0.4664.110 Safari/537.36",WebKit,Chrome,96.0.4664.110,Windows,10.0,ac0f2dffeffaa78d35a552e03d03f0a8
19,1,"""",test_procedure,confidence_rating,html-slider-response,62,105181,0.0-11.0-0.0-2.0,3SD15I2WEBVYX2RZ7BNPTJHHA9P63F,A3774HPOUKYTX7,34X6J5FLP2Z5FI91F7YC3FBL9SPJQQ,LJX44,LJX44,34X6J5FLP2Z5FI91F7YC3FBL9SPJQQ,34X6J5FLP2Z5FI91F7YC3FBL9SPJQQ,338054,338054,1,0.03,"""",1828.6999998092651,26,"<div id=""message-div""><p>How confident are you that your clockwise/counter-clockwise response just now was accurate? Please rate your confidence on the slider bar below.</p></div>","""","""","""",50,"""","""","""",26,"2021-12-31 03:42:06",67.180.106.232,"Mozilla/5.0 (Windows NT 10.0; Win64; x64) AppleWebKit/537.36 (KHTML, like Gecko) Chrome/96.0.4664.110 Safari/537.36",WebKit,Chrome,96.0.4664.110,Windows,10.0,ac0f2dffeffaa78d35a552e03d03f0a8
19,1,"""",test_procedure,fixation,html-keyboard-response,63,105683,0.0-11.0-0.0-0.1,3SD15I2WEBVYX2RZ7BNPTJHHA9P63F,A3774HPOUKYTX7,34X6J5FLP2Z5FI91F7YC3FBL9SPJQQ,LJX44,LJX44,34X6J5FLP2Z5FI91F7YC3FBL9SPJQQ,34X6J5FLP2Z5FI91F7YC3FBL9SPJQQ,338054,338054,1,0.03,"""",null,null,"<div class = fixationbox><div class = fixation>+</div></div>","""","""","""","""","""","""","""","""","2021-12-31 03:42:06",67.180.106.232,"Mozilla/5.0 (Windows NT 10.0; Win64; x64) AppleWebKit/537.36 (KHTML, like Gecko) Chrome/96.0.4664.110 Safari/537.36",WebKit,Chrome,96.0.4664.110,Windows,10.0,ac0f2dffeffaa78d35a552e03d03f0a8
19,1,"""",test_procedure,stim_test,canvas-button-response,64,106763,0.0-11.0-0.0-1.1,3SD15I2WEBVYX2RZ7BNPTJHHA9P63F,A3774HPOUKYTX7,34X6J5FLP2Z5FI91F7YC3FBL9SPJQQ,LJX44,LJX44,34X6J5FLP2Z5FI91F7YC3FBL9SPJQQ,34X6J5FLP2Z5FI91F7YC3FBL9SPJQQ,338054,338054,1,0.03,"""",955.5999999046326,1,stim1,1,Clockwise,true,"""",0.01,60,"""","""","2021-12-31 03:42:06",67.180.106.232,"Mozilla/5.0 (Windows NT 10.0; Win64; x64) AppleWebKit/537.36 (KHTML, like Gecko) Chrome/96.0.4664.110 Safari/537.36",WebKit,Chrome,96.0.4664.110,Windows,10.0,ac0f2dffeffaa78d35a552e03d03f0a8
19,1,"""",test_procedure,confidence_rating,html-slider-response,65,108610,0.0-11.0-0.0-2.1,3SD15I2WEBVYX2RZ7BNPTJHHA9P63F,A3774HPOUKYTX7,34X6J5FLP2Z5FI91F7YC3FBL9SPJQQ,LJX44,LJX44,34X6J5FLP2Z5FI91F7YC3FBL9SPJQQ,34X6J5FLP2Z5FI91F7YC3FBL9SPJQQ,338054,338054,1,0.03,"""",1845.6999998092651,63,"<div id=""message-div""><p>How confident are you that your clockwise/counter-clockwise response just now was accurate? Please rate your confidence on the slider bar below.</p></div>","""","""","""",50,"""","""","""",63,"2021-12-31 03:42:06",67.180.106.232,"Mozilla/5.0 (Windows NT 10.0; Win64; x64) AppleWebKit/537.36 (KHTML, like Gecko) Chrome/96.0.4664.110 Safari/537.36",WebKit,Chrome,96.0.4664.110,Windows,10.0,ac0f2dffeffaa78d35a552e03d03f0a8
19,1,"""",test_procedure,fixation,html-keyboard-response,66,109115,0.0-11.0-0.0-0.2,3SD15I2WEBVYX2RZ7BNPTJHHA9P63F,A3774HPOUKYTX7,34X6J5FLP2Z5FI91F7YC3FBL9SPJQQ,LJX44,LJX44,34X6J5FLP2Z5FI91F7YC3FBL9SPJQQ,34X6J5FLP2Z5FI91F7YC3FBL9SPJQQ,338054,338054,1,0.03,"""",null,null,"<div class = fixationbox><div class = fixation>+</div></div>","""","""","""","""","""","""","""","""","2021-12-31 03:42:06",67.180.106.232,"Mozilla/5.0 (Windows NT 10.0; Win64; x64) AppleWebKit/537.36 (KHTML, like Gecko) Chrome/96.0.4664.110 Safari/537.36",WebKit,Chrome,96.0.4664.110,Windows,10.0,ac0f2dffeffaa78d35a552e03d03f0a8
19,1,"""",test_procedure,stim_test,canvas-button-response,67,110459,0.0-11.0-0.0-1.2,3SD15I2WEBVYX2RZ7BNPTJHHA9P63F,A3774HPOUKYTX7,34X6J5FLP2Z5FI91F7YC3FBL9SPJQQ,LJX44,LJX44,34X6J5FLP2Z5FI91F7YC3FBL9SPJQQ,34X6J5FLP2Z5FI91F7YC3FBL9SPJQQ,338054,338054,1,0.03,"""",1226.4000000953674,0,catchStim7,1,Clockwise,false,"""",0.3,60,0.001,"""","2021-12-31 03:42:06",67.180.106.232,"Mozilla/5.0 (Windows NT 10.0; Win64; x64) AppleWebKit/537.36 (KHTML, like Gecko) Chrome/96.0.4664.110 Safari/537.36",WebKit,Chrome,96.0.4664.110,Windows,10.0,ac0f2dffeffaa78d35a552e03d03f0a8
19,1,"""",test_procedure,confidence_rating,html-slider-response,68,112838,0.0-11.0-0.0-2.2,3SD15I2WEBVYX2RZ7BNPTJHHA9P63F,A3774HPOUKYTX7,34X6J5FLP2Z5FI91F7YC3FBL9SPJQQ,LJX44,LJX44,34X6J5FLP2Z5FI91F7YC3FBL9SPJQQ,34X6J5FLP2Z5FI91F7YC3FBL9SPJQQ,338054,338054,1,0.03,"""",2377.4000000953674,3,"<div id=""message-div""><p>How confident are you that your clockwise/counter-clockwise response just now was accurate? Please rate your confidence on the slider bar below.</p></div>","""","""","""",50,"""","""","""",3,"2021-12-31 03:42:06",67.180.106.232,"Mozilla/5.0 (Windows NT 10.0; Win64; x64) AppleWebKit/537.36 (KHTML, like Gecko) Chrome/96.0.4664.110 Safari/537.36",WebKit,Chrome,96.0.4664.110,Windows,10.0,ac0f2dffeffaa78d35a552e03d03f0a8
19,1,"""",test_procedure,fixation,html-keyboard-response,69,113341,0.0-11.0-0.0-0.3,3SD15I2WEBVYX2RZ7BNPTJHHA9P63F,A3774HPOUKYTX7,34X6J5FLP2Z5FI91F7YC3FBL9SPJQQ,LJX44,LJX44,34X6J5FLP2Z5FI91F7YC3FBL9SPJQQ,34X6J5FLP2Z5FI91F7YC3FBL9SPJQQ,338054,338054,1,0.03,"""",null,null,"<div class = fixationbox><div class = fixation>+</div></div>","""","""","""","""","""","""","""","""","2021-12-31 03:42:06",67.180.106.232,"Mozilla/5.0 (Windows NT 10.0; Win64; x64) AppleWebKit/537.36 (KHTML, like Gecko) Chrome/96.0.4664.110 Safari/537.36",WebKit,Chrome,96.0.4664.110,Windows,10.0,ac0f2dffeffaa78d35a552e03d03f0a8
19,1,"""",test_procedure,stim_test,canvas-button-response,70,114624,0.0-11.0-0.0-1.3,3SD15I2WEBVYX2RZ7BNPTJHHA9P63F,A3774HPOUKYTX7,34X6J5FLP2Z5FI91F7YC3FBL9SPJQQ,LJX44,LJX44,34X6J5FLP2Z5FI91F7YC3FBL9SPJQQ,34X6J5FLP2Z5FI91F7YC3FBL9SPJQQ,338054,338054,1,0.03,"""",1152.5999999046326,0,stim2,0,Counter-clockwise,true,"""",0.01,120,"""","""","2021-12-31 03:42:06",67.180.106.232,"Mozilla/5.0 (Windows NT 10.0; Win64; x64) AppleWebKit/537.36 (KHTML, like Gecko) Chrome/96.0.4664.110 Safari/537.36",WebKit,Chrome,96.0.4664.110,Windows,10.0,ac0f2dffeffaa78d35a552e03d03f0a8
19,1,"""",test_procedure,confidence_rating,html-slider-response,71,116303,0.0-11.0-0.0-2.3,3SD15I2WEBVYX2RZ7BNPTJHHA9P63F,A3774HPOUKYTX7,34X6J5FLP2Z5FI91F7YC3FBL9SPJQQ,LJX44,LJX44,34X6J5FLP2Z5FI91F7YC3FBL9SPJQQ,34X6J5FLP2Z5FI91F7YC3FBL9SPJQQ,338054,338054,1,0.03,"""",1675.4000000953674,10,"<div id=""message-div""><p>How confident are you that your clockwise/counter-clockwise response just now was accurate? Please rate your confidence on the slider bar below.</p></div>","""","""","""",50,"""","""","""",10,"2021-12-31 03:42:06",67.180.106.232,"Mozilla/5.0 (Windows NT 10.0; Win64; x64) AppleWebKit/537.36 (KHTML, like Gecko) Chrome/96.0.4664.110 Safari/537.36",WebKit,Chrome,96.0.4664.110,Windows,10.0,ac0f2dffeffaa78d35a552e03d03f0a8
19,1,"""",test_procedure,fixation,html-keyboard-response,72,116804,0.0-11.0-0.0-0.4,3SD15I2WEBVYX2RZ7BNPTJHHA9P63F,A3774HPOUKYTX7,34X6J5FLP2Z5FI91F7YC3FBL9SPJQQ,LJX44,LJX44,34X6J5FLP2Z5FI91F7YC3FBL9SPJQQ,34X6J5FLP2Z5FI91F7YC3FBL9SPJQQ,338054,338054,1,0.03,"""",null,null,"<div class = fixationbox><div class = fixation>+</div></div>","""","""","""","""","""","""","""","""","2021-12-31 03:42:06",67.180.106.232,"Mozilla/5.0 (Windows NT 10.0; Win64; x64) AppleWebKit/537.36 (KHTML, like Gecko) Chrome/96.0.4664.110 Safari/537.36",WebKit,Chrome,96.0.4664.110,Windows,10.0,ac0f2dffeffaa78d35a552e03d03f0a8
19,1,"""",test_procedure,stim_test,canvas-button-response,73,117734,0.0-11.0-0.0-1.4,3SD15I2WEBVYX2RZ7BNPTJHHA9P63F,A3774HPOUKYTX7,34X6J5FLP2Z5FI91F7YC3FBL9SPJQQ,LJX44,LJX44,34X6J5FLP2Z5FI91F7YC3FBL9SPJQQ,34X6J5FLP2Z5FI91F7YC3FBL9SPJQQ,338054,338054,1,0.03,"""",842.9000000953674,1,stim2,0,Counter-clockwise,false,"""",0.01,120,"""","""","2021-12-31 03:42:06",67.180.106.232,"Mozilla/5.0 (Windows NT 10.0; Win64; x64) AppleWebKit/537.36 (KHTML, like Gecko) Chrome/96.0.4664.110 Safari/537.36",WebKit,Chrome,96.0.4664.110,Windows,10.0,ac0f2dffeffaa78d35a552e03d03f0a8
19,1,"""",test_procedure,confidence_rating,html-slider-response,74,119528,0.0-11.0-0.0-2.4,3SD15I2WEBVYX2RZ7BNPTJHHA9P63F,A3774HPOUKYTX7,34X6J5FLP2Z5FI91F7YC3FBL9SPJQQ,LJX44,LJX44,34X6J5FLP2Z5FI91F7YC3FBL9SPJQQ,34X6J5FLP2Z5FI91F7YC3FBL9SPJQQ,338054,338054,1,0.03,"""",1792.8000001907349,71,"<div id=""message-div""><p>How confident are you that your clockwise/counter-clockwise response just now was accurate? Please rate your confidence on the slider bar below.</p></div>","""","""","""",50,"""","""","""",71,"2021-12-31 03:42:06",67.180.106.232,"Mozilla/5.0 (Windows NT 10.0; Win64; x64) AppleWebKit/537.36 (KHTML, like Gecko) Chrome/96.0.4664.110 Safari/537.36",WebKit,Chrome,96.0.4664.110,Windows,10.0,ac0f2dffeffaa78d35a552e03d03f0a8
19,1,"""",test_procedure,fixation,html-keyboard-response,75,120030,0.0-11.0-0.0-0.5,3SD15I2WEBVYX2RZ7BNPTJHHA9P63F,A3774HPOUKYTX7,34X6J5FLP2Z5FI91F7YC3FBL9SPJQQ,LJX44,LJX44,34X6J5FLP2Z5FI91F7YC3FBL9SPJQQ,34X6J5FLP2Z5FI91F7YC3FBL9SPJQQ,338054,338054,1,0.03,"""",null,null,"<div class = fixationbox><div class = fixation>+</div></div>","""","""","""","""","""","""","""","""","2021-12-31 03:42:06",67.180.106.232,"Mozilla/5.0 (Windows NT 10.0; Win64; x64) AppleWebKit/537.36 (KHTML, like Gecko) Chrome/96.0.4664.110 Safari/537.36",WebKit,Chrome,96.0.4664.110,Windows,10.0,ac0f2dffeffaa78d35a552e03d03f0a8
19,1,"""",test_procedure,stim_test,canvas-button-response,76,121093,0.0-11.0-0.0-1.5,3SD15I2WEBVYX2RZ7BNPTJHHA9P63F,A3774HPOUKYTX7,34X6J5FLP2Z5FI91F7YC3FBL9SPJQQ,LJX44,LJX44,34X6J5FLP2Z5FI91F7YC3FBL9SPJQQ,34X6J5FLP2Z5FI91F7YC3FBL9SPJQQ,338054,338054,1,0.03,"""",949,1,stim3,1,Clockwise,true,"""",0.3,60,"""","""","2021-12-31 03:42:06",67.180.106.232,"Mozilla/5.0 (Windows NT 10.0; Win64; x64) AppleWebKit/537.36 (KHTML, like Gecko) Chrome/96.0.4664.110 Safari/537.36",WebKit,Chrome,96.0.4664.110,Windows,10.0,ac0f2dffeffaa78d35a552e03d03f0a8
19,1,"""",test_procedure,confidence_rating,html-slider-response,77,123643,0.0-11.0-0.0-2.5,3SD15I2WEBVYX2RZ7BNPTJHHA9P63F,A3774HPOUKYTX7,34X6J5FLP2Z5FI91F7YC3FBL9SPJQQ,LJX44,LJX44,34X6J5FLP2Z5FI91F7YC3FBL9SPJQQ,34X6J5FLP2Z5FI91F7YC3FBL9SPJQQ,338054,338054,1,0.03,"""",2545.4000000953674,95,"<div id=""message-div""><p>How confident are you that your clockwise/counter-clockwise response just now was accurate? Please rate your confidence on the slider bar below.</p></div>","""","""","""",50,"""","""","""",95,"2021-12-31 03:42:06",67.180.106.232,"Mozilla/5.0 (Windows NT 10.0; Win64; x64) AppleWebKit/537.36 (KHTML, like Gecko) Chrome/96.0.4664.110 Safari/537.36",WebKit,Chrome,96.0.4664.110,Windows,10.0,ac0f2dffeffaa78d35a552e03d03f0a8
19,1,"""",test_procedure,fixation,html-keyboard-response,78,124145,0.0-11.0-0.0-0.6,3SD15I2WEBVYX2RZ7BNPTJHHA9P63F,A3774HPOUKYTX7,34X6J5FLP2Z5FI91F7YC3FBL9SPJQQ,LJX44,LJX44,34X6J5FLP2Z5FI91F7YC3FBL9SPJQQ,34X6J5FLP2Z5FI91F7YC3FBL9SPJQQ,338054,338054,1,0.03,"""",null,null,"<div class = fixationbox><div class = fixation>+</div></div>","""","""","""","""","""","""","""","""","2021-12-31 03:42:06",67.180.106.232,"Mozilla/5.0 (Windows NT 10.0; Win64; x64) AppleWebKit/537.36 (KHTML, like Gecko) Chrome/96.0.4664.110 Safari/537.36",WebKit,Chrome,96.0.4664.110,Windows,10.0,ac0f2dffeffaa78d35a552e03d03f0a8
19,1,"""",test_procedure,stim_test,canvas-button-response,79,125239,0.0-11.0-0.0-1.6,3SD15I2WEBVYX2RZ7BNPTJHHA9P63F,A3774HPOUKYTX7,34X6J5FLP2Z5FI91F7YC3FBL9SPJQQ,LJX44,LJX44,34X6J5FLP2Z5FI91F7YC3FBL9SPJQQ,34X6J5FLP2Z5FI91F7YC3FBL9SPJQQ,338054,338054,1,0.03,"""",988.8000001907349,1,stim4,0,Counter-clockwise,false,"""",0.3,120,"""","""","2021-12-31 03:42:06",67.180.106.232,"Mozilla/5.0 (Windows NT 10.0; Win64; x64) AppleWebKit/537.36 (KHTML, like Gecko) Chrome/96.0.4664.110 Safari/537.36",WebKit,Chrome,96.0.4664.110,Windows,10.0,ac0f2dffeffaa78d35a552e03d03f0a8
19,1,"""",test_procedure,confidence_rating,html-slider-response,80,133133,0.0-11.0-0.0-2.6,3SD15I2WEBVYX2RZ7BNPTJHHA9P63F,A3774HPOUKYTX7,34X6J5FLP2Z5FI91F7YC3FBL9SPJQQ,LJX44,LJX44,34X6J5FLP2Z5FI91F7YC3FBL9SPJQQ,34X6J5FLP2Z5FI91F7YC3FBL9SPJQQ,338054,338054,1,0.03,"""",7892.400000095367,72,"<div id=""message-div""><p>How confident are you that your clockwise/counter-clockwise response just now was accurate? Please rate your confidence on the slider bar below.</p></div>","""","""","""",50,"""","""","""",72,"2021-12-31 03:42:06",67.180.106.232,"Mozilla/5.0 (Windows NT 10.0; Win64; x64) AppleWebKit/537.36 (KHTML, like Gecko) Chrome/96.0.4664.110 Safari/537.36",WebKit,Chrome,96.0.4664.110,Windows,10.0,ac0f2dffeffaa78d35a552e03d03f0a8
19,1,"""",test_procedure,fixation,html-keyboard-response,81,133637,0.0-11.0-0.0-0.7,3SD15I2WEBVYX2RZ7BNPTJHHA9P63F,A3774HPOUKYTX7,34X6J5FLP2Z5FI91F7YC3FBL9SPJQQ,LJX44,LJX44,34X6J5FLP2Z5FI91F7YC3FBL9SPJQQ,34X6J5FLP2Z5FI91F7YC3FBL9SPJQQ,338054,338054,1,0.03,"""",null,null,"<div class = fixationbox><div class = fixation>+</div></div>","""","""","""","""","""","""","""","""","2021-12-31 03:42:06",67.180.106.232,"Mozilla/5.0 (Windows NT 10.0; Win64; x64) AppleWebKit/537.36 (KHTML, like Gecko) Chrome/96.0.4664.110 Safari/537.36",WebKit,Chrome,96.0.4664.110,Windows,10.0,ac0f2dffeffaa78d35a552e03d03f0a8
19,1,"""",test_procedure,stim_test,canvas-button-response,82,134739,0.0-11.0-0.0-1.7,3SD15I2WEBVYX2RZ7BNPTJHHA9P63F,A3774HPOUKYTX7,34X6J5FLP2Z5FI91F7YC3FBL9SPJQQ,LJX44,LJX44,34X6J5FLP2Z5FI91F7YC3FBL9SPJQQ,34X6J5FLP2Z5FI91F7YC3FBL9SPJQQ,338054,338054,1,0.03,"""",1006.8000001907349,0,catchStim6,0,Counter-clockwise,true,"""",0.3,120,0.6,"""","2021-12-31 03:42:06",67.180.106.232,"Mozilla/5.0 (Windows NT 10.0; Win64; x64) AppleWebKit/537.36 (KHTML, like Gecko) Chrome/96.0.4664.110 Safari/537.36",WebKit,Chrome,96.0.4664.110,Windows,10.0,ac0f2dffeffaa78d35a552e03d03f0a8
19,1,"""",test_procedure,confidence_rating,html-slider-response,83,135975,0.0-11.0-0.0-2.7,3SD15I2WEBVYX2RZ7BNPTJHHA9P63F,A3774HPOUKYTX7,34X6J5FLP2Z5FI91F7YC3FBL9SPJQQ,LJX44,LJX44,34X6J5FLP2Z5FI91F7YC3FBL9SPJQQ,34X6J5FLP2Z5FI91F7YC3FBL9SPJQQ,338054,338054,1,0.03,"""",1234.8000001907349,30,"<div id=""message-div""><p>How confident are you that your clockwise/counter-clockwise response just now was accurate? Please rate your confidence on the slider bar below.</p></div>","""","""","""",50,"""","""","""",30,"2021-12-31 03:42:06",67.180.106.232,"Mozilla/5.0 (Windows NT 10.0; Win64; x64) AppleWebKit/537.36 (KHTML, like Gecko) Chrome/96.0.4664.110 Safari/537.36",WebKit,Chrome,96.0.4664.110,Windows,10.0,ac0f2dffeffaa78d35a552e03d03f0a8
19,1,"""",test_procedure,fixation,html-keyboard-response,84,136478,0.0-11.0-0.0-0.8,3SD15I2WEBVYX2RZ7BNPTJHHA9P63F,A3774HPOUKYTX7,34X6J5FLP2Z5FI91F7YC3FBL9SPJQQ,LJX44,LJX44,34X6J5FLP2Z5FI91F7YC3FBL9SPJQQ,34X6J5FLP2Z5FI91F7YC3FBL9SPJQQ,338054,338054,1,0.03,"""",null,null,"<div class = fixationbox><div class = fixation>+</div></div>","""","""","""","""","""","""","""","""","2021-12-31 03:42:06",67.180.106.232,"Mozilla/5.0 (Windows NT 10.0; Win64; x64) AppleWebKit/537.36 (KHTML, like Gecko) Chrome/96.0.4664.110 Safari/537.36",WebKit,Chrome,96.0.4664.110,Windows,10.0,ac0f2dffeffaa78d35a552e03d03f0a8
19,1,"""",test_procedure,stim_test,canvas-button-response,85,137334,0.0-11.0-0.0-1.8,3SD15I2WEBVYX2RZ7BNPTJHHA9P63F,A3774HPOUKYTX7,34X6J5FLP2Z5FI91F7YC3FBL9SPJQQ,LJX44,LJX44,34X6J5FLP2Z5FI91F7YC3FBL9SPJQQ,34X6J5FLP2Z5FI91F7YC3FBL9SPJQQ,338054,338054,1,0.03,"""",791.4000000953674,0,catchStim2,0,Counter-clockwise,true,"""",0.01,120,0.6,"""","2021-12-31 03:42:06",67.180.106.232,"Mozilla/5.0 (Windows NT 10.0; Win64; x64) AppleWebKit/537.36 (KHTML, like Gecko) Chrome/96.0.4664.110 Safari/537.36",WebKit,Chrome,96.0.4664.110,Windows,10.0,ac0f2dffeffaa78d35a552e03d03f0a8
19,1,"""",test_procedure,confidence_rating,html-slider-response,86,138980,0.0-11.0-0.0-2.8,3SD15I2WEBVYX2RZ7BNPTJHHA9P63F,A3774HPOUKYTX7,34X6J5FLP2Z5FI91F7YC3FBL9SPJQQ,LJX44,LJX44,34X6J5FLP2Z5FI91F7YC3FBL9SPJQQ,34X6J5FLP2Z5FI91F7YC3FBL9SPJQQ,338054,338054,1,0.03,"""",1645,19,"<div id=""message-div""><p>How confident are you that your clockwise/counter-clockwise response just now was accurate? Please rate your confidence on the slider bar below.</p></div>","""","""","""",50,"""","""","""",19,"2021-12-31 03:42:06",67.180.106.232,"Mozilla/5.0 (Windows NT 10.0; Win64; x64) AppleWebKit/537.36 (KHTML, like Gecko) Chrome/96.0.4664.110 Safari/537.36",WebKit,Chrome,96.0.4664.110,Windows,10.0,ac0f2dffeffaa78d35a552e03d03f0a8
19,1,"""",test_procedure,fixation,html-keyboard-response,87,139486,0.0-11.0-0.0-0.9,3SD15I2WEBVYX2RZ7BNPTJHHA9P63F,A3774HPOUKYTX7,34X6J5FLP2Z5FI91F7YC3FBL9SPJQQ,LJX44,LJX44,34X6J5FLP2Z5FI91F7YC3FBL9SPJQQ,34X6J5FLP2Z5FI91F7YC3FBL9SPJQQ,338054,338054,1,0.03,"""",null,null,"<div class = fixationbox><div class = fixation>+</div></div>","""","""","""","""","""","""","""","""","2021-12-31 03:42:06",67.180.106.232,"Mozilla/5.0 (Windows NT 10.0; Win64; x64) AppleWebKit/537.36 (KHTML, like Gecko) Chrome/96.0.4664.110 Safari/537.36",WebKit,Chrome,96.0.4664.110,Windows,10.0,ac0f2dffeffaa78d35a552e03d03f0a8
19,1,"""",test_procedure,stim_test,canvas-button-response,88,140562,0.0-11.0-0.0-1.9,3SD15I2WEBVYX2RZ7BNPTJHHA9P63F,A3774HPOUKYTX7,34X6J5FLP2Z5FI91F7YC3FBL9SPJQQ,LJX44,LJX44,34X6J5FLP2Z5FI91F7YC3FBL9SPJQQ,34X6J5FLP2Z5FI91F7YC3FBL9SPJQQ,338054,338054,1,0.03,"""",994.6999998092651,1,stim3,1,Clockwise,true,"""",0.3,60,"""","""","2021-12-31 03:42:06",67.180.106.232,"Mozilla/5.0 (Windows NT 10.0; Win64; x64) AppleWebKit/537.36 (KHTML, like Gecko) Chrome/96.0.4664.110 Safari/537.36",WebKit,Chrome,96.0.4664.110,Windows,10.0,ac0f2dffeffaa78d35a552e03d03f0a8
19,1,"""",test_procedure,confidence_rating,html-slider-response,89,142048,0.0-11.0-0.0-2.9,3SD15I2WEBVYX2RZ7BNPTJHHA9P63F,A3774HPOUKYTX7,34X6J5FLP2Z5FI91F7YC3FBL9SPJQQ,LJX44,LJX44,34X6J5FLP2Z5FI91F7YC3FBL9SPJQQ,34X6J5FLP2Z5FI91F7YC3FBL9SPJQQ,338054,338054,1,0.03,"""",1484.4000000953674,62,"<div id=""message-div""><p>How confident are you that your clockwise/counter-clockwise response just now was accurate? Please rate your confidence on the slider bar below.</p></div>","""","""","""",50,"""","""","""",62,"2021-12-31 03:42:06",67.180.106.232,"Mozilla/5.0 (Windows NT 10.0; Win64; x64) AppleWebKit/537.36 (KHTML, like Gecko) Chrome/96.0.4664.110 Safari/537.36",WebKit,Chrome,96.0.4664.110,Windows,10.0,ac0f2dffeffaa78d35a552e03d03f0a8
19,1,"""",test_procedure,fixation,html-keyboard-response,90,142549,0.0-11.0-0.0-0.10,3SD15I2WEBVYX2RZ7BNPTJHHA9P63F,A3774HPOUKYTX7,34X6J5FLP2Z5FI91F7YC3FBL9SPJQQ,LJX44,LJX44,34X6J5FLP2Z5FI91F7YC3FBL9SPJQQ,34X6J5FLP2Z5FI91F7YC3FBL9SPJQQ,338054,338054,1,0.03,"""",null,null,"<div class = fixationbox><div class = fixation>+</div></div>","""","""","""","""","""","""","""","""","2021-12-31 03:42:06",67.180.106.232,"Mozilla/5.0 (Windows NT 10.0; Win64; x64) AppleWebKit/537.36 (KHTML, like Gecko) Chrome/96.0.4664.110 Safari/537.36",WebKit,Chrome,96.0.4664.110,Windows,10.0,ac0f2dffeffaa78d35a552e03d03f0a8
19,1,"""",test_procedure,stim_test,canvas-button-response,91,143543,0.0-11.0-0.0-1.10,3SD15I2WEBVYX2RZ7BNPTJHHA9P63F,A3774HPOUKYTX7,34X6J5FLP2Z5FI91F7YC3FBL9SPJQQ,LJX44,LJX44,34X6J5FLP2Z5FI91F7YC3FBL9SPJQQ,34X6J5FLP2Z5FI91F7YC3FBL9SPJQQ,338054,338054,1,0.03,"""",902.6999998092651,1,stim3,1,Clockwise,true,"""",0.3,60,"""","""","2021-12-31 03:42:06",67.180.106.232,"Mozilla/5.0 (Windows NT 10.0; Win64; x64) AppleWebKit/537.36 (KHTML, like Gecko) Chrome/96.0.4664.110 Safari/537.36",WebKit,Chrome,96.0.4664.110,Windows,10.0,ac0f2dffeffaa78d35a552e03d03f0a8
19,1,"""",test_procedure,confidence_rating,html-slider-response,92,145070,0.0-11.0-0.0-2.10,3SD15I2WEBVYX2RZ7BNPTJHHA9P63F,A3774HPOUKYTX7,34X6J5FLP2Z5FI91F7YC3FBL9SPJQQ,LJX44,LJX44,34X6J5FLP2Z5FI91F7YC3FBL9SPJQQ,34X6J5FLP2Z5FI91F7YC3FBL9SPJQQ,338054,338054,1,0.03,"""",1525.5999999046326,57,"<div id=""message-div""><p>How confident are you that your clockwise/counter-clockwise response just now was accurate? Please rate your confidence on the slider bar below.</p></div>","""","""","""",50,"""","""","""",57,"2021-12-31 03:42:06",67.180.106.232,"Mozilla/5.0 (Windows NT 10.0; Win64; x64) AppleWebKit/537.36 (KHTML, like Gecko) Chrome/96.0.4664.110 Safari/537.36",WebKit,Chrome,96.0.4664.110,Windows,10.0,ac0f2dffeffaa78d35a552e03d03f0a8
19,1,"""",test_procedure,fixation,html-keyboard-response,93,145575,0.0-11.0-0.0-0.11,3SD15I2WEBVYX2RZ7BNPTJHHA9P63F,A3774HPOUKYTX7,34X6J5FLP2Z5FI91F7YC3FBL9SPJQQ,LJX44,LJX44,34X6J5FLP2Z5FI91F7YC3FBL9SPJQQ,34X6J5FLP2Z5FI91F7YC3FBL9SPJQQ,338054,338054,1,0.03,"""",null,null,"<div class = fixationbox><div class = fixation>+</div></div>","""","""","""","""","""","""","""","""","2021-12-31 03:42:06",67.180.106.232,"Mozilla/5.0 (Windows NT 10.0; Win64; x64) AppleWebKit/537.36 (KHTML, like Gecko) Chrome/96.0.4664.110 Safari/537.36",WebKit,Chrome,96.0.4664.110,Windows,10.0,ac0f2dffeffaa78d35a552e03d03f0a8
19,1,"""",test_procedure,stim_test,canvas-button-response,94,146622,0.0-11.0-0.0-1.11,3SD15I2WEBVYX2RZ7BNPTJHHA9P63F,A3774HPOUKYTX7,34X6J5FLP2Z5FI91F7YC3FBL9SPJQQ,LJX44,LJX44,34X6J5FLP2Z5FI91F7YC3FBL9SPJQQ,34X6J5FLP2Z5FI91F7YC3FBL9SPJQQ,338054,338054,1,0.03,"""",975.2999997138977,1,stim3,1,Clockwise,true,"""",0.3,60,"""","""","2021-12-31 03:42:06",67.180.106.232,"Mozilla/5.0 (Windows NT 10.0; Win64; x64) AppleWebKit/537.36 (KHTML, like Gecko) Chrome/96.0.4664.110 Safari/537.36",WebKit,Chrome,96.0.4664.110,Windows,10.0,ac0f2dffeffaa78d35a552e03d03f0a8
19,1,"""",test_procedure,confidence_rating,html-slider-response,95,147876,0.0-11.0-0.0-2.11,3SD15I2WEBVYX2RZ7BNPTJHHA9P63F,A3774HPOUKYTX7,34X6J5FLP2Z5FI91F7YC3FBL9SPJQQ,LJX44,LJX44,34X6J5FLP2Z5FI91F7YC3FBL9SPJQQ,34X6J5FLP2Z5FI91F7YC3FBL9SPJQQ,338054,338054,1,0.03,"""",1252.2000002861023,65,"<div id=""message-div""><p>How confident are you that your clockwise/counter-clockwise response just now was accurate? Please rate your confidence on the slider bar below.</p></div>","""","""","""",50,"""","""","""",65,"2021-12-31 03:42:06",67.180.106.232,"Mozilla/5.0 (Windows NT 10.0; Win64; x64) AppleWebKit/537.36 (KHTML, like Gecko) Chrome/96.0.4664.110 Safari/537.36",WebKit,Chrome,96.0.4664.110,Windows,10.0,ac0f2dffeffaa78d35a552e03d03f0a8
19,1,"""",test_procedure,fixation,html-keyboard-response,96,148377,0.0-11.0-0.0-0.12,3SD15I2WEBVYX2RZ7BNPTJHHA9P63F,A3774HPOUKYTX7,34X6J5FLP2Z5FI91F7YC3FBL9SPJQQ,LJX44,LJX44,34X6J5FLP2Z5FI91F7YC3FBL9SPJQQ,34X6J5FLP2Z5FI91F7YC3FBL9SPJQQ,338054,338054,1,0.03,"""",null,null,"<div class = fixationbox><div class = fixation>+</div></div>","""","""","""","""","""","""","""","""","2021-12-31 03:42:06",67.180.106.232,"Mozilla/5.0 (Windows NT 10.0; Win64; x64) AppleWebKit/537.36 (KHTML, like Gecko) Chrome/96.0.4664.110 Safari/537.36",WebKit,Chrome,96.0.4664.110,Windows,10.0,ac0f2dffeffaa78d35a552e03d03f0a8
19,1,"""",test_procedure,stim_test,canvas-button-response,97,149267,0.0-11.0-0.0-1.12,3SD15I2WEBVYX2RZ7BNPTJHHA9P63F,A3774HPOUKYTX7,34X6J5FLP2Z5FI91F7YC3FBL9SPJQQ,LJX44,LJX44,34X6J5FLP2Z5FI91F7YC3FBL9SPJQQ,34X6J5FLP2Z5FI91F7YC3FBL9SPJQQ,338054,338054,1,0.03,"""",800.5,0,stim4,0,Counter-clockwise,true,"""",0.3,120,"""","""","2021-12-31 03:42:06",67.180.106.232,"Mozilla/5.0 (Windows NT 10.0; Win64; x64) AppleWebKit/537.36 (KHTML, like Gecko) Chrome/96.0.4664.110 Safari/537.36",WebKit,Chrome,96.0.4664.110,Windows,10.0,ac0f2dffeffaa78d35a552e03d03f0a8
19,1,"""",test_procedure,confidence_rating,html-slider-response,98,151088,0.0-11.0-0.0-2.12,3SD15I2WEBVYX2RZ7BNPTJHHA9P63F,A3774HPOUKYTX7,34X6J5FLP2Z5FI91F7YC3FBL9SPJQQ,LJX44,LJX44,34X6J5FLP2Z5FI91F7YC3FBL9SPJQQ,34X6J5FLP2Z5FI91F7YC3FBL9SPJQQ,338054,338054,1,0.03,"""",1820.2000002861023,41,"<div id=""message-div""><p>How confident are you that your clockwise/counter-clockwise response just now was accurate? Please rate your confidence on the slider bar below.</p></div>","""","""","""",50,"""","""","""",41,"2021-12-31 03:42:06",67.180.106.232,"Mozilla/5.0 (Windows NT 10.0; Win64; x64) AppleWebKit/537.36 (KHTML, like Gecko) Chrome/96.0.4664.110 Safari/537.36",WebKit,Chrome,96.0.4664.110,Windows,10.0,ac0f2dffeffaa78d35a552e03d03f0a8
19,1,"""",test_procedure,fixation,html-keyboard-response,99,151595,0.0-11.0-0.0-0.13,3SD15I2WEBVYX2RZ7BNPTJHHA9P63F,A3774HPOUKYTX7,34X6J5FLP2Z5FI91F7YC3FBL9SPJQQ,LJX44,LJX44,34X6J5FLP2Z5FI91F7YC3FBL9SPJQQ,34X6J5FLP2Z5FI91F7YC3FBL9SPJQQ,338054,338054,1,0.03,"""",null,null,"<div class = fixationbox><div class = fixation>+</div></div>","""","""","""","""","""","""","""","""","2021-12-31 03:42:06",67.180.106.232,"Mozilla/5.0 (Windows NT 10.0; Win64; x64) AppleWebKit/537.36 (KHTML, like Gecko) Chrome/96.0.4664.110 Safari/537.36",WebKit,Chrome,96.0.4664.110,Windows,10.0,ac0f2dffeffaa78d35a552e03d03f0a8
19,1,"""",test_procedure,stim_test,canvas-button-response,100,152644,0.0-11.0-0.0-1.13,3SD15I2WEBVYX2RZ7BNPTJHHA9P63F,A3774HPOUKYTX7,34X6J5FLP2Z5FI91F7YC3FBL9SPJQQ,LJX44,LJX44,34X6J5FLP2Z5FI91F7YC3FBL9SPJQQ,34X6J5FLP2Z5FI91F7YC3FBL9SPJQQ,338054,338054,1,0.03,"""",955.4000000953674,1,stim1,1,Clockwise,true,"""",0.01,60,"""","""","2021-12-31 03:42:06",67.180.106.232,"Mozilla/5.0 (Windows NT 10.0; Win64; x64) AppleWebKit/537.36 (KHTML, like Gecko) Chrome/96.0.4664.110 Safari/537.36",WebKit,Chrome,96.0.4664.110,Windows,10.0,ac0f2dffeffaa78d35a552e03d03f0a8
19,1,"""",test_procedure,confidence_rating,html-slider-response,101,154523,0.0-11.0-0.0-2.13,3SD15I2WEBVYX2RZ7BNPTJHHA9P63F,A3774HPOUKYTX7,34X6J5FLP2Z5FI91F7YC3FBL9SPJQQ,LJX44,LJX44,34X6J5FLP2Z5FI91F7YC3FBL9SPJQQ,34X6J5FLP2Z5FI91F7YC3FBL9SPJQQ,338054,338054,1,0.03,"""",1877.7000002861023,64,"<div id=""message-div""><p>How confident are you that your clockwise/counter-clockwise response just now was accurate? Please rate your confidence on the slider bar below.</p></div>","""","""","""",50,"""","""","""",64,"2021-12-31 03:42:06",67.180.106.232,"Mozilla/5.0 (Windows NT 10.0; Win64; x64) AppleWebKit/537.36 (KHTML, like Gecko) Chrome/96.0.4664.110 Safari/537.36",WebKit,Chrome,96.0.4664.110,Windows,10.0,ac0f2dffeffaa78d35a552e03d03f0a8
19,1,"""",test_procedure,fixation,html-keyboard-response,102,155024,0.0-11.0-0.0-0.14,3SD15I2WEBVYX2RZ7BNPTJHHA9P63F,A3774HPOUKYTX7,34X6J5FLP2Z5FI91F7YC3FBL9SPJQQ,LJX44,LJX44,34X6J5FLP2Z5FI91F7YC3FBL9SPJQQ,34X6J5FLP2Z5FI91F7YC3FBL9SPJQQ,338054,338054,1,0.03,"""",null,null,"<div class = fixationbox><div class = fixation>+</div></div>","""","""","""","""","""","""","""","""","2021-12-31 03:42:06",67.180.106.232,"Mozilla/5.0 (Windows NT 10.0; Win64; x64) AppleWebKit/537.36 (KHTML, like Gecko) Chrome/96.0.4664.110 Safari/537.36",WebKit,Chrome,96.0.4664.110,Windows,10.0,ac0f2dffeffaa78d35a552e03d03f0a8
19,1,"""",test_procedure,stim_test,canvas-button-response,103,156070,0.0-11.0-0.0-1.14,3SD15I2WEBVYX2RZ7BNPTJHHA9P63F,A3774HPOUKYTX7,34X6J5FLP2Z5FI91F7YC3FBL9SPJQQ,LJX44,LJX44,34X6J5FLP2Z5FI91F7YC3FBL9SPJQQ,34X6J5FLP2Z5FI91F7YC3FBL9SPJQQ,338054,338054,1,0.03,"""",948.7000002861023,0,stim2,0,Counter-clockwise,true,"""",0.01,120,"""","""","2021-12-31 03:42:06",67.180.106.232,"Mozilla/5.0 (Windows NT 10.0; Win64; x64) AppleWebKit/537.36 (KHTML, like Gecko) Chrome/96.0.4664.110 Safari/537.36",WebKit,Chrome,96.0.4664.110,Windows,10.0,ac0f2dffeffaa78d35a552e03d03f0a8
19,1,"""",test_procedure,confidence_rating,html-slider-response,104,158892,0.0-11.0-0.0-2.14,3SD15I2WEBVYX2RZ7BNPTJHHA9P63F,A3774HPOUKYTX7,34X6J5FLP2Z5FI91F7YC3FBL9SPJQQ,LJX44,LJX44,34X6J5FLP2Z5FI91F7YC3FBL9SPJQQ,34X6J5FLP2Z5FI91F7YC3FBL9SPJQQ,338054,338054,1,0.03,"""",2820.0999999046326,51,"<div id=""message-div""><p>How confident are you that your clockwise/counter-clockwise response just now was accurate? Please rate your confidence on the slider bar below.</p></div>","""","""","""",50,"""","""","""",51,"2021-12-31 03:42:06",67.180.106.232,"Mozilla/5.0 (Windows NT 10.0; Win64; x64) AppleWebKit/537.36 (KHTML, like Gecko) Chrome/96.0.4664.110 Safari/537.36",WebKit,Chrome,96.0.4664.110,Windows,10.0,ac0f2dffeffaa78d35a552e03d03f0a8
19,1,"""",test_procedure,fixation,html-keyboard-response,105,159399,0.0-11.0-0.0-0.15,3SD15I2WEBVYX2RZ7BNPTJHHA9P63F,A3774HPOUKYTX7,34X6J5FLP2Z5FI91F7YC3FBL9SPJQQ,LJX44,LJX44,34X6J5FLP2Z5FI91F7YC3FBL9SPJQQ,34X6J5FLP2Z5FI91F7YC3FBL9SPJQQ,338054,338054,1,0.03,"""",null,null,"<div class = fixationbox><div class = fixation>+</div></div>","""","""","""","""","""","""","""","""","2021-12-31 03:42:06",67.180.106.232,"Mozilla/5.0 (Windows NT 10.0; Win64; x64) AppleWebKit/537.36 (KHTML, like Gecko) Chrome/96.0.4664.110 Safari/537.36",WebKit,Chrome,96.0.4664.110,Windows,10.0,ac0f2dffeffaa78d35a552e03d03f0a8
19,1,"""",test_procedure,stim_test,canvas-button-response,106,160449,0.0-11.0-0.0-1.15,3SD15I2WEBVYX2RZ7BNPTJHHA9P63F,A3774HPOUKYTX7,34X6J5FLP2Z5FI91F7YC3FBL9SPJQQ,LJX44,LJX44,34X6J5FLP2Z5FI91F7YC3FBL9SPJQQ,34X6J5FLP2Z5FI91F7YC3FBL9SPJQQ,338054,338054,1,0.03,"""",953.0999999046326,1,catchStim1,1,Clockwise,true,"""",0.01,60,0.6,"""","2021-12-31 03:42:06",67.180.106.232,"Mozilla/5.0 (Windows NT 10.0; Win64; x64) AppleWebKit/537.36 (KHTML, like Gecko) Chrome/96.0.4664.110 Safari/537.36",WebKit,Chrome,96.0.4664.110,Windows,10.0,ac0f2dffeffaa78d35a552e03d03f0a8
19,1,"""",test_procedure,confidence_rating,html-slider-response,107,162297,0.0-11.0-0.0-2.15,3SD15I2WEBVYX2RZ7BNPTJHHA9P63F,A3774HPOUKYTX7,34X6J5FLP2Z5FI91F7YC3FBL9SPJQQ,LJX44,LJX44,34X6J5FLP2Z5FI91F7YC3FBL9SPJQQ,34X6J5FLP2Z5FI91F7YC3FBL9SPJQQ,338054,338054,1,0.03,"""",1846.6999998092651,59,"<div id=""message-div""><p>How confident are you that your clockwise/counter-clockwise response just now was accurate? Please rate your confidence on the slider bar below.</p></div>","""","""","""",50,"""","""","""",59,"2021-12-31 03:42:06",67.180.106.232,"Mozilla/5.0 (Windows NT 10.0; Win64; x64) AppleWebKit/537.36 (KHTML, like Gecko) Chrome/96.0.4664.110 Safari/537.36",WebKit,Chrome,96.0.4664.110,Windows,10.0,ac0f2dffeffaa78d35a552e03d03f0a8
19,1,"""",test_procedure,fixation,html-keyboard-response,108,162798,0.0-11.0-0.0-0.16,3SD15I2WEBVYX2RZ7BNPTJHHA9P63F,A3774HPOUKYTX7,34X6J5FLP2Z5FI91F7YC3FBL9SPJQQ,LJX44,LJX44,34X6J5FLP2Z5FI91F7YC3FBL9SPJQQ,34X6J5FLP2Z5FI91F7YC3FBL9SPJQQ,338054,338054,1,0.03,"""",null,null,"<div class = fixationbox><div class = fixation>+</div></div>","""","""","""","""","""","""","""","""","2021-12-31 03:42:06",67.180.106.232,"Mozilla/5.0 (Windows NT 10.0; Win64; x64) AppleWebKit/537.36 (KHTML, like Gecko) Chrome/96.0.4664.110 Safari/537.36",WebKit,Chrome,96.0.4664.110,Windows,10.0,ac0f2dffeffaa78d35a552e03d03f0a8
19,1,"""",test_procedure,stim_test,canvas-button-response,109,163768,0.0-11.0-0.0-1.16,3SD15I2WEBVYX2RZ7BNPTJHHA9P63F,A3774HPOUKYTX7,34X6J5FLP2Z5FI91F7YC3FBL9SPJQQ,LJX44,LJX44,34X6J5FLP2Z5FI91F7YC3FBL9SPJQQ,34X6J5FLP2Z5FI91F7YC3FBL9SPJQQ,338054,338054,1,0.03,"""",861.1000003814697,0,stim2,0,Counter-clockwise,true,"""",0.01,120,"""","""","2021-12-31 03:42:06",67.180.106.232,"Mozilla/5.0 (Windows NT 10.0; Win64; x64) AppleWebKit/537.36 (KHTML, like Gecko) Chrome/96.0.4664.110 Safari/537.36",WebKit,Chrome,96.0.4664.110,Windows,10.0,ac0f2dffeffaa78d35a552e03d03f0a8
19,1,"""",test_procedure,confidence_rating,html-slider-response,110,165198,0.0-11.0-0.0-2.16,3SD15I2WEBVYX2RZ7BNPTJHHA9P63F,A3774HPOUKYTX7,34X6J5FLP2Z5FI91F7YC3FBL9SPJQQ,LJX44,LJX44,34X6J5FLP2Z5FI91F7YC3FBL9SPJQQ,34X6J5FLP2Z5FI91F7YC3FBL9SPJQQ,338054,338054,1,0.03,"""",1428.8000001907349,57,"<div id=""message-div""><p>How confident are you that your clockwise/counter-clockwise response just now was accurate? Please rate your confidence on the slider bar below.</p></div>","""","""","""",50,"""","""","""",57,"2021-12-31 03:42:06",67.180.106.232,"Mozilla/5.0 (Windows NT 10.0; Win64; x64) AppleWebKit/537.36 (KHTML, like Gecko) Chrome/96.0.4664.110 Safari/537.36",WebKit,Chrome,96.0.4664.110,Windows,10.0,ac0f2dffeffaa78d35a552e03d03f0a8
19,1,"""",test_procedure,fixation,html-keyboard-response,111,165704,0.0-11.0-0.0-0.17,3SD15I2WEBVYX2RZ7BNPTJHHA9P63F,A3774HPOUKYTX7,34X6J5FLP2Z5FI91F7YC3FBL9SPJQQ,LJX44,LJX44,34X6J5FLP2Z5FI91F7YC3FBL9SPJQQ,34X6J5FLP2Z5FI91F7YC3FBL9SPJQQ,338054,338054,1,0.03,"""",null,null,"<div class = fixationbox><div class = fixation>+</div></div>","""","""","""","""","""","""","""","""","2021-12-31 03:42:06",67.180.106.232,"Mozilla/5.0 (Windows NT 10.0; Win64; x64) AppleWebKit/537.36 (KHTML, like Gecko) Chrome/96.0.4664.110 Safari/537.36",WebKit,Chrome,96.0.4664.110,Windows,10.0,ac0f2dffeffaa78d35a552e03d03f0a8
19,1,"""",test_procedure,stim_test,canvas-button-response,112,166773,0.0-11.0-0.0-1.17,3SD15I2WEBVYX2RZ7BNPTJHHA9P63F,A3774HPOUKYTX7,34X6J5FLP2Z5FI91F7YC3FBL9SPJQQ,LJX44,LJX44,34X6J5FLP2Z5FI91F7YC3FBL9SPJQQ,34X6J5FLP2Z5FI91F7YC3FBL9SPJQQ,338054,338054,1,0.03,"""",965.1000003814697,1,stim4,0,Counter-clockwise,false,"""",0.3,120,"""","""","2021-12-31 03:42:06",67.180.106.232,"Mozilla/5.0 (Windows NT 10.0; Win64; x64) AppleWebKit/537.36 (KHTML, like Gecko) Chrome/96.0.4664.110 Safari/537.36",WebKit,Chrome,96.0.4664.110,Windows,10.0,ac0f2dffeffaa78d35a552e03d03f0a8
19,1,"""",test_procedure,confidence_rating,html-slider-response,113,168573,0.0-11.0-0.0-2.17,3SD15I2WEBVYX2RZ7BNPTJHHA9P63F,A3774HPOUKYTX7,34X6J5FLP2Z5FI91F7YC3FBL9SPJQQ,LJX44,LJX44,34X6J5FLP2Z5FI91F7YC3FBL9SPJQQ,34X6J5FLP2Z5FI91F7YC3FBL9SPJQQ,338054,338054,1,0.03,"""",1798.8000001907349,69,"<div id=""message-div""><p>How confident are you that your clockwise/counter-clockwise response just now was accurate? Please rate your confidence on the slider bar below.</p></div>","""","""","""",50,"""","""","""",69,"2021-12-31 03:42:06",67.180.106.232,"Mozilla/5.0 (Windows NT 10.0; Win64; x64) AppleWebKit/537.36 (KHTML, like Gecko) Chrome/96.0.4664.110 Safari/537.36",WebKit,Chrome,96.0.4664.110,Windows,10.0,ac0f2dffeffaa78d35a552e03d03f0a8
19,1,"""",test_procedure,fixation,html-keyboard-response,114,169074,0.0-11.0-0.0-0.18,3SD15I2WEBVYX2RZ7BNPTJHHA9P63F,A3774HPOUKYTX7,34X6J5FLP2Z5FI91F7YC3FBL9SPJQQ,LJX44,LJX44,34X6J5FLP2Z5FI91F7YC3FBL9SPJQQ,34X6J5FLP2Z5FI91F7YC3FBL9SPJQQ,338054,338054,1,0.03,"""",null,null,"<div class = fixationbox><div class = fixation>+</div></div>","""","""","""","""","""","""","""","""","2021-12-31 03:42:06",67.180.106.232,"Mozilla/5.0 (Windows NT 10.0; Win64; x64) AppleWebKit/537.36 (KHTML, like Gecko) Chrome/96.0.4664.110 Safari/537.36",WebKit,Chrome,96.0.4664.110,Windows,10.0,ac0f2dffeffaa78d35a552e03d03f0a8
19,1,"""",test_procedure,stim_test,canvas-button-response,115,170044,0.0-11.0-0.0-1.18,3SD15I2WEBVYX2RZ7BNPTJHHA9P63F,A3774HPOUKYTX7,34X6J5FLP2Z5FI91F7YC3FBL9SPJQQ,LJX44,LJX44,34X6J5FLP2Z5FI91F7YC3FBL9SPJQQ,34X6J5FLP2Z5FI91F7YC3FBL9SPJQQ,338054,338054,1,0.03,"""",859.9000000953674,0,stim4,0,Counter-clockwise,true,"""",0.3,120,"""","""","2021-12-31 03:42:06",67.180.106.232,"Mozilla/5.0 (Windows NT 10.0; Win64; x64) AppleWebKit/537.36 (KHTML, like Gecko) Chrome/96.0.4664.110 Safari/537.36",WebKit,Chrome,96.0.4664.110,Windows,10.0,ac0f2dffeffaa78d35a552e03d03f0a8
19,1,"""",test_procedure,confidence_rating,html-slider-response,116,172173,0.0-11.0-0.0-2.18,3SD15I2WEBVYX2RZ7BNPTJHHA9P63F,A3774HPOUKYTX7,34X6J5FLP2Z5FI91F7YC3FBL9SPJQQ,LJX44,LJX44,34X6J5FLP2Z5FI91F7YC3FBL9SPJQQ,34X6J5FLP2Z5FI91F7YC3FBL9SPJQQ,338054,338054,1,0.03,"""",2128,31,"<div id=""message-div""><p>How confident are you that your clockwise/counter-clockwise response just now was accurate? Please rate your confidence on the slider bar below.</p></div>","""","""","""",50,"""","""","""",31,"2021-12-31 03:42:06",67.180.106.232,"Mozilla/5.0 (Windows NT 10.0; Win64; x64) AppleWebKit/537.36 (KHTML, like Gecko) Chrome/96.0.4664.110 Safari/537.36",WebKit,Chrome,96.0.4664.110,Windows,10.0,ac0f2dffeffaa78d35a552e03d03f0a8
19,1,"""",test_procedure,fixation,html-keyboard-response,117,172680,0.0-11.0-0.0-0.19,3SD15I2WEBVYX2RZ7BNPTJHHA9P63F,A3774HPOUKYTX7,34X6J5FLP2Z5FI91F7YC3FBL9SPJQQ,LJX44,LJX44,34X6J5FLP2Z5FI91F7YC3FBL9SPJQQ,34X6J5FLP2Z5FI91F7YC3FBL9SPJQQ,338054,338054,1,0.03,"""",null,null,"<div class = fixationbox><div class = fixation>+</div></div>","""","""","""","""","""","""","""","""","2021-12-31 03:42:06",67.180.106.232,"Mozilla/5.0 (Windows NT 10.0; Win64; x64) AppleWebKit/537.36 (KHTML, like Gecko) Chrome/96.0.4664.110 Safari/537.36",WebKit,Chrome,96.0.4664.110,Windows,10.0,ac0f2dffeffaa78d35a552e03d03f0a8
19,1,"""",test_procedure,stim_test,canvas-button-response,118,173298,0.0-11.0-0.0-1.19,3SD15I2WEBVYX2RZ7BNPTJHHA9P63F,A3774HPOUKYTX7,34X6J5FLP2Z5FI91F7YC3FBL9SPJQQ,LJX44,LJX44,34X6J5FLP2Z5FI91F7YC3FBL9SPJQQ,34X6J5FLP2Z5FI91F7YC3FBL9SPJQQ,338054,338054,1,0.03,"""",533.8000001907349,0,catchStim8,0,Counter-clockwise,true,"""",0.3,120,0.001,"""","2021-12-31 03:42:06",67.180.106.232,"Mozilla/5.0 (Windows NT 10.0; Win64; x64) AppleWebKit/537.36 (KHTML, like Gecko) Chrome/96.0.4664.110 Safari/537.36",WebKit,Chrome,96.0.4664.110,Windows,10.0,ac0f2dffeffaa78d35a552e03d03f0a8
19,1,"""",test_procedure,confidence_rating,html-slider-response,119,174892,0.0-11.0-0.0-2.19,3SD15I2WEBVYX2RZ7BNPTJHHA9P63F,A3774HPOUKYTX7,34X6J5FLP2Z5FI91F7YC3FBL9SPJQQ,LJX44,LJX44,34X6J5FLP2Z5FI91F7YC3FBL9SPJQQ,34X6J5FLP2Z5FI91F7YC3FBL9SPJQQ,338054,338054,1,0.03,"""",1592,24,"<div id=""message-div""><p>How confident are you that your clockwise/counter-clockwise response just now was accurate? Please rate your confidence on the slider bar below.</p></div>","""","""","""",50,"""","""","""",24,"2021-12-31 03:42:06",67.180.106.232,"Mozilla/5.0 (Windows NT 10.0; Win64; x64) AppleWebKit/537.36 (KHTML, like Gecko) Chrome/96.0.4664.110 Safari/537.36",WebKit,Chrome,96.0.4664.110,Windows,10.0,ac0f2dffeffaa78d35a552e03d03f0a8
19,1,"""",test_procedure,fixation,html-keyboard-response,120,175394,0.0-11.0-0.0-0.20,3SD15I2WEBVYX2RZ7BNPTJHHA9P63F,A3774HPOUKYTX7,34X6J5FLP2Z5FI91F7YC3FBL9SPJQQ,LJX44,LJX44,34X6J5FLP2Z5FI91F7YC3FBL9SPJQQ,34X6J5FLP2Z5FI91F7YC3FBL9SPJQQ,338054,338054,1,0.03,"""",null,null,"<div class = fixationbox><div class = fixation>+</div></div>","""","""","""","""","""","""","""","""","2021-12-31 03:42:06",67.180.106.232,"Mozilla/5.0 (Windows NT 10.0; Win64; x64) AppleWebKit/537.36 (KHTML, like Gecko) Chrome/96.0.4664.110 Safari/537.36",WebKit,Chrome,96.0.4664.110,Windows,10.0,ac0f2dffeffaa78d35a552e03d03f0a8
19,1,"""",test_procedure,stim_test,canvas-button-response,121,176580,0.0-11.0-0.0-1.20,3SD15I2WEBVYX2RZ7BNPTJHHA9P63F,A3774HPOUKYTX7,34X6J5FLP2Z5FI91F7YC3FBL9SPJQQ,LJX44,LJX44,34X6J5FLP2Z5FI91F7YC3FBL9SPJQQ,34X6J5FLP2Z5FI91F7YC3FBL9SPJQQ,338054,338054,1,0.03,"""",1076.2999997138977,0,catchStim5,1,Clockwise,false,"""",0.3,60,0.6,"""","2021-12-31 03:42:06",67.180.106.232,"Mozilla/5.0 (Windows NT 10.0; Win64; x64) AppleWebKit/537.36 (KHTML, like Gecko) Chrome/96.0.4664.110 Safari/537.36",WebKit,Chrome,96.0.4664.110,Windows,10.0,ac0f2dffeffaa78d35a552e03d03f0a8
19,1,"""",test_procedure,confidence_rating,html-slider-response,122,178172,0.0-11.0-0.0-2.20,3SD15I2WEBVYX2RZ7BNPTJHHA9P63F,A3774HPOUKYTX7,34X6J5FLP2Z5FI91F7YC3FBL9SPJQQ,LJX44,LJX44,34X6J5FLP2Z5FI91F7YC3FBL9SPJQQ,34X6J5FLP2Z5FI91F7YC3FBL9SPJQQ,338054,338054,1,0.03,"""",1590.9000000953674,44,"<div id=""message-div""><p>How confident are you that your clockwise/counter-clockwise response just now was accurate? Please rate your confidence on the slider bar below.</p></div>","""","""","""",50,"""","""","""",44,"2021-12-31 03:42:06",67.180.106.232,"Mozilla/5.0 (Windows NT 10.0; Win64; x64) AppleWebKit/537.36 (KHTML, like Gecko) Chrome/96.0.4664.110 Safari/537.36",WebKit,Chrome,96.0.4664.110,Windows,10.0,ac0f2dffeffaa78d35a552e03d03f0a8
19,1,"""",test_procedure,fixation,html-keyboard-response,123,178679,0.0-11.0-0.0-0.21,3SD15I2WEBVYX2RZ7BNPTJHHA9P63F,A3774HPOUKYTX7,34X6J5FLP2Z5FI91F7YC3FBL9SPJQQ,LJX44,LJX44,34X6J5FLP2Z5FI91F7YC3FBL9SPJQQ,34X6J5FLP2Z5FI91F7YC3FBL9SPJQQ,338054,338054,1,0.03,"""",null,null,"<div class = fixationbox><div class = fixation>+</div></div>","""","""","""","""","""","""","""","""","2021-12-31 03:42:06",67.180.106.232,"Mozilla/5.0 (Windows NT 10.0; Win64; x64) AppleWebKit/537.36 (KHTML, like Gecko) Chrome/96.0.4664.110 Safari/537.36",WebKit,Chrome,96.0.4664.110,Windows,10.0,ac0f2dffeffaa78d35a552e03d03f0a8
19,1,"""",test_procedure,stim_test,canvas-button-response,124,179161,0.0-11.0-0.0-1.21,3SD15I2WEBVYX2RZ7BNPTJHHA9P63F,A3774HPOUKYTX7,34X6J5FLP2Z5FI91F7YC3FBL9SPJQQ,LJX44,LJX44,34X6J5FLP2Z5FI91F7YC3FBL9SPJQQ,34X6J5FLP2Z5FI91F7YC3FBL9SPJQQ,338054,338054,1,0.03,"""",379.40000009536743,0,stim1,1,Clockwise,false,"""",0.01,60,"""","""","2021-12-31 03:42:06",67.180.106.232,"Mozilla/5.0 (Windows NT 10.0; Win64; x64) AppleWebKit/537.36 (KHTML, like Gecko) Chrome/96.0.4664.110 Safari/537.36",WebKit,Chrome,96.0.4664.110,Windows,10.0,ac0f2dffeffaa78d35a552e03d03f0a8
19,1,"""",test_procedure,confidence_rating,html-slider-response,125,180616,0.0-11.0-0.0-2.21,3SD15I2WEBVYX2RZ7BNPTJHHA9P63F,A3774HPOUKYTX7,34X6J5FLP2Z5FI91F7YC3FBL9SPJQQ,LJX44,LJX44,34X6J5FLP2Z5FI91F7YC3FBL9SPJQQ,34X6J5FLP2Z5FI91F7YC3FBL9SPJQQ,338054,338054,1,0.03,"""",1454.7000002861023,50,"<div id=""message-div""><p>How confident are you that your clockwise/counter-clockwise response just now was accurate? Please rate your confidence on the slider bar below.</p></div>","""","""","""",50,"""","""","""",50,"2021-12-31 03:42:06",67.180.106.232,"Mozilla/5.0 (Windows NT 10.0; Win64; x64) AppleWebKit/537.36 (KHTML, like Gecko) Chrome/96.0.4664.110 Safari/537.36",WebKit,Chrome,96.0.4664.110,Windows,10.0,ac0f2dffeffaa78d35a552e03d03f0a8
19,1,"""",test_procedure,fixation,html-keyboard-response,126,181119,0.0-11.0-0.0-0.22,3SD15I2WEBVYX2RZ7BNPTJHHA9P63F,A3774HPOUKYTX7,34X6J5FLP2Z5FI91F7YC3FBL9SPJQQ,LJX44,LJX44,34X6J5FLP2Z5FI91F7YC3FBL9SPJQQ,34X6J5FLP2Z5FI91F7YC3FBL9SPJQQ,338054,338054,1,0.03,"""",null,null,"<div class = fixationbox><div class = fixation>+</div></div>","""","""","""","""","""","""","""","""","2021-12-31 03:42:06",67.180.106.232,"Mozilla/5.0 (Windows NT 10.0; Win64; x64) AppleWebKit/537.36 (KHTML, like Gecko) Chrome/96.0.4664.110 Safari/537.36",WebKit,Chrome,96.0.4664.110,Windows,10.0,ac0f2dffeffaa78d35a552e03d03f0a8
19,1,"""",test_procedure,stim_test,canvas-button-response,127,182304,0.0-11.0-0.0-1.22,3SD15I2WEBVYX2RZ7BNPTJHHA9P63F,A3774HPOUKYTX7,34X6J5FLP2Z5FI91F7YC3FBL9SPJQQ,LJX44,LJX44,34X6J5FLP2Z5FI91F7YC3FBL9SPJQQ,34X6J5FLP2Z5FI91F7YC3FBL9SPJQQ,338054,338054,1,0.03,"""",1123.6999998092651,1,catchStim3,1,Clockwise,true,"""",0.01,60,0.001,"""","2021-12-31 03:42:06",67.180.106.232,"Mozilla/5.0 (Windows NT 10.0; Win64; x64) AppleWebKit/537.36 (KHTML, like Gecko) Chrome/96.0.4664.110 Safari/537.36",WebKit,Chrome,96.0.4664.110,Windows,10.0,ac0f2dffeffaa78d35a552e03d03f0a8
19,1,"""",test_procedure,confidence_rating,html-slider-response,128,183927,0.0-11.0-0.0-2.22,3SD15I2WEBVYX2RZ7BNPTJHHA9P63F,A3774HPOUKYTX7,34X6J5FLP2Z5FI91F7YC3FBL9SPJQQ,LJX44,LJX44,34X6J5FLP2Z5FI91F7YC3FBL9SPJQQ,34X6J5FLP2Z5FI91F7YC3FBL9SPJQQ,338054,338054,1,0.03,"""",1621.7000002861023,54,"<div id=""message-div""><p>How confident are you that your clockwise/counter-clockwise response just now was accurate? Please rate your confidence on the slider bar below.</p></div>","""","""","""",50,"""","""","""",54,"2021-12-31 03:42:06",67.180.106.232,"Mozilla/5.0 (Windows NT 10.0; Win64; x64) AppleWebKit/537.36 (KHTML, like Gecko) Chrome/96.0.4664.110 Safari/537.36",WebKit,Chrome,96.0.4664.110,Windows,10.0,ac0f2dffeffaa78d35a552e03d03f0a8
19,1,"""",test_procedure,fixation,html-keyboard-response,129,184432,0.0-11.0-0.0-0.23,3SD15I2WEBVYX2RZ7BNPTJHHA9P63F,A3774HPOUKYTX7,34X6J5FLP2Z5FI91F7YC3FBL9SPJQQ,LJX44,LJX44,34X6J5FLP2Z5FI91F7YC3FBL9SPJQQ,34X6J5FLP2Z5FI91F7YC3FBL9SPJQQ,338054,338054,1,0.03,"""",null,null,"<div class = fixationbox><div class = fixation>+</div></div>","""","""","""","""","""","""","""","""","2021-12-31 03:42:06",67.180.106.232,"Mozilla/5.0 (Windows NT 10.0; Win64; x64) AppleWebKit/537.36 (KHTML, like Gecko) Chrome/96.0.4664.110 Safari/537.36",WebKit,Chrome,96.0.4664.110,Windows,10.0,ac0f2dffeffaa78d35a552e03d03f0a8
19,1,"""",test_procedure,stim_test,canvas-button-response,130,185124,0.0-11.0-0.0-1.23,3SD15I2WEBVYX2RZ7BNPTJHHA9P63F,A3774HPOUKYTX7,34X6J5FLP2Z5FI91F7YC3FBL9SPJQQ,LJX44,LJX44,34X6J5FLP2Z5FI91F7YC3FBL9SPJQQ,34X6J5FLP2Z5FI91F7YC3FBL9SPJQQ,338054,338054,1,0.03,"""",581.4000000953674,1,stim1,1,Clockwise,true,"""",0.01,60,"""","""","2021-12-31 03:42:06",67.180.106.232,"Mozilla/5.0 (Windows NT 10.0; Win64; x64) AppleWebKit/537.36 (KHTML, like Gecko) Chrome/96.0.4664.110 Safari/537.36",WebKit,Chrome,96.0.4664.110,Windows,10.0,ac0f2dffeffaa78d35a552e03d03f0a8
19,1,"""",test_procedure,confidence_rating,html-slider-response,131,186488,0.0-11.0-0.0-2.23,3SD15I2WEBVYX2RZ7BNPTJHHA9P63F,A3774HPOUKYTX7,34X6J5FLP2Z5FI91F7YC3FBL9SPJQQ,LJX44,LJX44,34X6J5FLP2Z5FI91F7YC3FBL9SPJQQ,34X6J5FLP2Z5FI91F7YC3FBL9SPJQQ,338054,338054,1,0.03,"""",1362.8999996185303,58,"<div id=""message-div""><p>How confident are you that your clockwise/counter-clockwise response just now was accurate? Please rate your confidence on the slider bar below.</p></div>","""","""","""",50,"""","""","""",58,"2021-12-31 03:42:06",67.180.106.232,"Mozilla/5.0 (Windows NT 10.0; Win64; x64) AppleWebKit/537.36 (KHTML, like Gecko) Chrome/96.0.4664.110 Safari/537.36",WebKit,Chrome,96.0.4664.110,Windows,10.0,ac0f2dffeffaa78d35a552e03d03f0a8
19,1,"""",test_procedure,rest_block,html-button-response,132,189015,0.0-11.0-0.0-3.23-0.23,3SD15I2WEBVYX2RZ7BNPTJHHA9P63F,A3774HPOUKYTX7,34X6J5FLP2Z5FI91F7YC3FBL9SPJQQ,LJX44,LJX44,34X6J5FLP2Z5FI91F7YC3FBL9SPJQQ,34X6J5FLP2Z5FI91F7YC3FBL9SPJQQ,338054,338054,1,0.03,"""",2524.9000000953674,0,"[""<p>You responded correctly on 70.83% of the trials in the previous section.</p><p>Time to take a break!</p><p>Once you're ready, press the \"Continue\" button to continue.</p>""]","""","""","""","""","""","""","""","""","2021-12-31 03:42:06",67.180.106.232,"Mozilla/5.0 (Windows NT 10.0; Win64; x64) AppleWebKit/537.36 (KHTML, like Gecko) Chrome/96.0.4664.110 Safari/537.36",WebKit,Chrome,96.0.4664.110,Windows,10.0,ac0f2dffeffaa78d35a552e03d03f0a8
19,1,"""",test_procedure,fixation,html-keyboard-response,133,189516,0.0-11.0-0.1-0.24,3SD15I2WEBVYX2RZ7BNPTJHHA9P63F,A3774HPOUKYTX7,34X6J5FLP2Z5FI91F7YC3FBL9SPJQQ,LJX44,LJX44,34X6J5FLP2Z5FI91F7YC3FBL9SPJQQ,34X6J5FLP2Z5FI91F7YC3FBL9SPJQQ,338054,338054,1,0.03,"""",null,null,"<div class = fixationbox><div class = fixation>+</div></div>","""","""","""","""","""","""","""","""","2021-12-31 03:42:06",67.180.106.232,"Mozilla/5.0 (Windows NT 10.0; Win64; x64) AppleWebKit/537.36 (KHTML, like Gecko) Chrome/96.0.4664.110 Safari/537.36",WebKit,Chrome,96.0.4664.110,Windows,10.0,ac0f2dffeffaa78d35a552e03d03f0a8
19,1,"""",test_procedure,stim_test,canvas-button-response,134,190172,0.0-11.0-0.1-1.24,3SD15I2WEBVYX2RZ7BNPTJHHA9P63F,A3774HPOUKYTX7,34X6J5FLP2Z5FI91F7YC3FBL9SPJQQ,LJX44,LJX44,34X6J5FLP2Z5FI91F7YC3FBL9SPJQQ,34X6J5FLP2Z5FI91F7YC3FBL9SPJQQ,338054,338054,1,0.03,"""",550.9000000953674,1,stim4,0,Counter-clockwise,false,"""",0.3,120,"""","""","2021-12-31 03:42:06",67.180.106.232,"Mozilla/5.0 (Windows NT 10.0; Win64; x64) AppleWebKit/537.36 (KHTML, like Gecko) Chrome/96.0.4664.110 Safari/537.36",WebKit,Chrome,96.0.4664.110,Windows,10.0,ac0f2dffeffaa78d35a552e03d03f0a8
19,1,"""",test_procedure,confidence_rating,html-slider-response,135,191686,0.0-11.0-0.1-2.24,3SD15I2WEBVYX2RZ7BNPTJHHA9P63F,A3774HPOUKYTX7,34X6J5FLP2Z5FI91F7YC3FBL9SPJQQ,LJX44,LJX44,34X6J5FLP2Z5FI91F7YC3FBL9SPJQQ,34X6J5FLP2Z5FI91F7YC3FBL9SPJQQ,338054,338054,1,0.03,"""",1508.4000000953674,63,"<div id=""message-div""><p>How confident are you that your clockwise/counter-clockwise response just now was accurate? Please rate your confidence on the slider bar below.</p></div>","""","""","""",50,"""","""","""",63,"2021-12-31 03:42:06",67.180.106.232,"Mozilla/5.0 (Windows NT 10.0; Win64; x64) AppleWebKit/537.36 (KHTML, like Gecko) Chrome/96.0.4664.110 Safari/537.36",WebKit,Chrome,96.0.4664.110,Windows,10.0,ac0f2dffeffaa78d35a552e03d03f0a8
19,1,"""",test_procedure,fixation,html-keyboard-response,136,192187,0.0-11.0-0.1-0.25,3SD15I2WEBVYX2RZ7BNPTJHHA9P63F,A3774HPOUKYTX7,34X6J5FLP2Z5FI91F7YC3FBL9SPJQQ,LJX44,LJX44,34X6J5FLP2Z5FI91F7YC3FBL9SPJQQ,34X6J5FLP2Z5FI91F7YC3FBL9SPJQQ,338054,338054,1,0.03,"""",null,null,"<div class = fixationbox><div class = fixation>+</div></div>","""","""","""","""","""","""","""","""","2021-12-31 03:42:06",67.180.106.232,"Mozilla/5.0 (Windows NT 10.0; Win64; x64) AppleWebKit/537.36 (KHTML, like Gecko) Chrome/96.0.4664.110 Safari/537.36",WebKit,Chrome,96.0.4664.110,Windows,10.0,ac0f2dffeffaa78d35a552e03d03f0a8
19,1,"""",test_procedure,stim_test,canvas-button-response,137,194342,0.0-11.0-0.1-1.25,3SD15I2WEBVYX2RZ7BNPTJHHA9P63F,A3774HPOUKYTX7,34X6J5FLP2Z5FI91F7YC3FBL9SPJQQ,LJX44,LJX44,34X6J5FLP2Z5FI91F7YC3FBL9SPJQQ,34X6J5FLP2Z5FI91F7YC3FBL9SPJQQ,338054,338054,1,0.03,"""",2103.9000000953674,0,stim2,0,Counter-clockwise,true,"""",0.01,120,"""","""","2021-12-31 03:42:06",67.180.106.232,"Mozilla/5.0 (Windows NT 10.0; Win64; x64) AppleWebKit/537.36 (KHTML, like Gecko) Chrome/96.0.4664.110 Safari/537.36",WebKit,Chrome,96.0.4664.110,Windows,10.0,ac0f2dffeffaa78d35a552e03d03f0a8
19,1,"""",test_procedure,confidence_rating,html-slider-response,138,195862,0.0-11.0-0.1-2.25,3SD15I2WEBVYX2RZ7BNPTJHHA9P63F,A3774HPOUKYTX7,34X6J5FLP2Z5FI91F7YC3FBL9SPJQQ,LJX44,LJX44,34X6J5FLP2Z5FI91F7YC3FBL9SPJQQ,34X6J5FLP2Z5FI91F7YC3FBL9SPJQQ,338054,338054,1,0.03,"""",1518.5999999046326,54,"<div id=""message-div""><p>How confident are you that your clockwise/counter-clockwise response just now was accurate? Please rate your confidence on the slider bar below.</p></div>","""","""","""",50,"""","""","""",54,"2021-12-31 03:42:06",67.180.106.232,"Mozilla/5.0 (Windows NT 10.0; Win64; x64) AppleWebKit/537.36 (KHTML, like Gecko) Chrome/96.0.4664.110 Safari/537.36",WebKit,Chrome,96.0.4664.110,Windows,10.0,ac0f2dffeffaa78d35a552e03d03f0a8
19,1,"""",test_procedure,fixation,html-keyboard-response,139,196365,0.0-11.0-0.1-0.26,3SD15I2WEBVYX2RZ7BNPTJHHA9P63F,A3774HPOUKYTX7,34X6J5FLP2Z5FI91F7YC3FBL9SPJQQ,LJX44,LJX44,34X6J5FLP2Z5FI91F7YC3FBL9SPJQQ,34X6J5FLP2Z5FI91F7YC3FBL9SPJQQ,338054,338054,1,0.03,"""",null,null,"<div class = fixationbox><div class = fixation>+</div></div>","""","""","""","""","""","""","""","""","2021-12-31 03:42:06",67.180.106.232,"Mozilla/5.0 (Windows NT 10.0; Win64; x64) AppleWebKit/537.36 (KHTML, like Gecko) Chrome/96.0.4664.110 Safari/537.36",WebKit,Chrome,96.0.4664.110,Windows,10.0,ac0f2dffeffaa78d35a552e03d03f0a8
19,1,"""",test_procedure,stim_test,canvas-button-response,140,197220,0.0-11.0-0.1-1.26,3SD15I2WEBVYX2RZ7BNPTJHHA9P63F,A3774HPOUKYTX7,34X6J5FLP2Z5FI91F7YC3FBL9SPJQQ,LJX44,LJX44,34X6J5FLP2Z5FI91F7YC3FBL9SPJQQ,34X6J5FLP2Z5FI91F7YC3FBL9SPJQQ,338054,338054,1,0.03,"""",787.5,1,stim3,1,Clockwise,true,"""",0.3,60,"""","""","2021-12-31 03:42:06",67.180.106.232,"Mozilla/5.0 (Windows NT 10.0; Win64; x64) AppleWebKit/537.36 (KHTML, like Gecko) Chrome/96.0.4664.110 Safari/537.36",WebKit,Chrome,96.0.4664.110,Windows,10.0,ac0f2dffeffaa78d35a552e03d03f0a8
19,1,"""",test_procedure,confidence_rating,html-slider-response,141,198683,0.0-11.0-0.1-2.26,3SD15I2WEBVYX2RZ7BNPTJHHA9P63F,A3774HPOUKYTX7,34X6J5FLP2Z5FI91F7YC3FBL9SPJQQ,LJX44,LJX44,34X6J5FLP2Z5FI91F7YC3FBL9SPJQQ,34X6J5FLP2Z5FI91F7YC3FBL9SPJQQ,338054,338054,1,0.03,"""",1462.2999997138977,71,"<div id=""message-div""><p>How confident are you that your clockwise/counter-clockwise response just now was accurate? Please rate your confidence on the slider bar below.</p></div>","""","""","""",50,"""","""","""",71,"2021-12-31 03:42:06",67.180.106.232,"Mozilla/5.0 (Windows NT 10.0; Win64; x64) AppleWebKit/537.36 (KHTML, like Gecko) Chrome/96.0.4664.110 Safari/537.36",WebKit,Chrome,96.0.4664.110,Windows,10.0,ac0f2dffeffaa78d35a552e03d03f0a8
19,1,"""",test_procedure,fixation,html-keyboard-response,142,199186,0.0-11.0-0.1-0.27,3SD15I2WEBVYX2RZ7BNPTJHHA9P63F,A3774HPOUKYTX7,34X6J5FLP2Z5FI91F7YC3FBL9SPJQQ,LJX44,LJX44,34X6J5FLP2Z5FI91F7YC3FBL9SPJQQ,34X6J5FLP2Z5FI91F7YC3FBL9SPJQQ,338054,338054,1,0.03,"""",null,null,"<div class = fixationbox><div class = fixation>+</div></div>","""","""","""","""","""","""","""","""","2021-12-31 03:42:06",67.180.106.232,"Mozilla/5.0 (Windows NT 10.0; Win64; x64) AppleWebKit/537.36 (KHTML, like Gecko) Chrome/96.0.4664.110 Safari/537.36",WebKit,Chrome,96.0.4664.110,Windows,10.0,ac0f2dffeffaa78d35a552e03d03f0a8
19,1,"""",test_procedure,stim_test,canvas-button-response,143,200508,0.0-11.0-0.1-1.27,3SD15I2WEBVYX2RZ7BNPTJHHA9P63F,A3774HPOUKYTX7,34X6J5FLP2Z5FI91F7YC3FBL9SPJQQ,LJX44,LJX44,34X6J5FLP2Z5FI91F7YC3FBL9SPJQQ,34X6J5FLP2Z5FI91F7YC3FBL9SPJQQ,338054,338054,1,0.03,"""",1227.5,1,stim1,1,Clockwise,true,"""",0.01,60,"""","""","2021-12-31 03:42:06",67.180.106.232,"Mozilla/5.0 (Windows NT 10.0; Win64; x64) AppleWebKit/537.36 (KHTML, like Gecko) Chrome/96.0.4664.110 Safari/537.36",WebKit,Chrome,96.0.4664.110,Windows,10.0,ac0f2dffeffaa78d35a552e03d03f0a8
19,1,"""",test_procedure,confidence_rating,html-slider-response,144,202131,0.0-11.0-0.1-2.27,3SD15I2WEBVYX2RZ7BNPTJHHA9P63F,A3774HPOUKYTX7,34X6J5FLP2Z5FI91F7YC3FBL9SPJQQ,LJX44,LJX44,34X6J5FLP2Z5FI91F7YC3FBL9SPJQQ,34X6J5FLP2Z5FI91F7YC3FBL9SPJQQ,338054,338054,1,0.03,"""",1621.8000001907349,33,"<div id=""message-div""><p>How confident are you that your clockwise/counter-clockwise response just now was accurate? Please rate your confidence on the slider bar below.</p></div>","""","""","""",50,"""","""","""",33,"2021-12-31 03:42:06",67.180.106.232,"Mozilla/5.0 (Windows NT 10.0; Win64; x64) AppleWebKit/537.36 (KHTML, like Gecko) Chrome/96.0.4664.110 Safari/537.36",WebKit,Chrome,96.0.4664.110,Windows,10.0,ac0f2dffeffaa78d35a552e03d03f0a8
19,1,"""",test_procedure,fixation,html-keyboard-response,145,202637,0.0-11.0-0.1-0.28,3SD15I2WEBVYX2RZ7BNPTJHHA9P63F,A3774HPOUKYTX7,34X6J5FLP2Z5FI91F7YC3FBL9SPJQQ,LJX44,LJX44,34X6J5FLP2Z5FI91F7YC3FBL9SPJQQ,34X6J5FLP2Z5FI91F7YC3FBL9SPJQQ,338054,338054,1,0.03,"""",null,null,"<div class = fixationbox><div class = fixation>+</div></div>","""","""","""","""","""","""","""","""","2021-12-31 03:42:06",67.180.106.232,"Mozilla/5.0 (Windows NT 10.0; Win64; x64) AppleWebKit/537.36 (KHTML, like Gecko) Chrome/96.0.4664.110 Safari/537.36",WebKit,Chrome,96.0.4664.110,Windows,10.0,ac0f2dffeffaa78d35a552e03d03f0a8
19,1,"""",test_procedure,stim_test,canvas-button-response,146,203682,0.0-11.0-0.1-1.28,3SD15I2WEBVYX2RZ7BNPTJHHA9P63F,A3774HPOUKYTX7,34X6J5FLP2Z5FI91F7YC3FBL9SPJQQ,LJX44,LJX44,34X6J5FLP2Z5FI91F7YC3FBL9SPJQQ,34X6J5FLP2Z5FI91F7YC3FBL9SPJQQ,338054,338054,1,0.03,"""",946.5,0,catchStim2,0,Counter-clockwise,true,"""",0.01,120,0.6,"""","2021-12-31 03:42:06",67.180.106.232,"Mozilla/5.0 (Windows NT 10.0; Win64; x64) AppleWebKit/537.36 (KHTML, like Gecko) Chrome/96.0.4664.110 Safari/537.36",WebKit,Chrome,96.0.4664.110,Windows,10.0,ac0f2dffeffaa78d35a552e03d03f0a8
19,1,"""",test_procedure,confidence_rating,html-slider-response,147,206227,0.0-11.0-0.1-2.28,3SD15I2WEBVYX2RZ7BNPTJHHA9P63F,A3774HPOUKYTX7,34X6J5FLP2Z5FI91F7YC3FBL9SPJQQ,LJX44,LJX44,34X6J5FLP2Z5FI91F7YC3FBL9SPJQQ,34X6J5FLP2Z5FI91F7YC3FBL9SPJQQ,338054,338054,1,0.03,"""",2544,45,"<div id=""message-div""><p>How confident are you that your clockwise/counter-clockwise response just now was accurate? Please rate your confidence on the slider bar below.</p></div>","""","""","""",50,"""","""","""",45,"2021-12-31 03:42:06",67.180.106.232,"Mozilla/5.0 (Windows NT 10.0; Win64; x64) AppleWebKit/537.36 (KHTML, like Gecko) Chrome/96.0.4664.110 Safari/537.36",WebKit,Chrome,96.0.4664.110,Windows,10.0,ac0f2dffeffaa78d35a552e03d03f0a8
19,1,"""",test_procedure,fixation,html-keyboard-response,148,206730,0.0-11.0-0.1-0.29,3SD15I2WEBVYX2RZ7BNPTJHHA9P63F,A3774HPOUKYTX7,34X6J5FLP2Z5FI91F7YC3FBL9SPJQQ,LJX44,LJX44,34X6J5FLP2Z5FI91F7YC3FBL9SPJQQ,34X6J5FLP2Z5FI91F7YC3FBL9SPJQQ,338054,338054,1,0.03,"""",null,null,"<div class = fixationbox><div class = fixation>+</div></div>","""","""","""","""","""","""","""","""","2021-12-31 03:42:06",67.180.106.232,"Mozilla/5.0 (Windows NT 10.0; Win64; x64) AppleWebKit/537.36 (KHTML, like Gecko) Chrome/96.0.4664.110 Safari/537.36",WebKit,Chrome,96.0.4664.110,Windows,10.0,ac0f2dffeffaa78d35a552e03d03f0a8
19,1,"""",test_procedure,stim_test,canvas-button-response,149,209219,0.0-11.0-0.1-1.29,3SD15I2WEBVYX2RZ7BNPTJHHA9P63F,A3774HPOUKYTX7,34X6J5FLP2Z5FI91F7YC3FBL9SPJQQ,LJX44,LJX44,34X6J5FLP2Z5FI91F7YC3FBL9SPJQQ,34X6J5FLP2Z5FI91F7YC3FBL9SPJQQ,338054,338054,1,0.03,"""",2423.0999999046326,1,stim1,1,Clockwise,true,"""",0.01,60,"""","""","2021-12-31 03:42:06",67.180.106.232,"Mozilla/5.0 (Windows NT 10.0; Win64; x64) AppleWebKit/537.36 (KHTML, like Gecko) Chrome/96.0.4664.110 Safari/537.36",WebKit,Chrome,96.0.4664.110,Windows,10.0,ac0f2dffeffaa78d35a552e03d03f0a8
19,1,"""",test_procedure,confidence_rating,html-slider-response,150,211301,0.0-11.0-0.1-2.29,3SD15I2WEBVYX2RZ7BNPTJHHA9P63F,A3774HPOUKYTX7,34X6J5FLP2Z5FI91F7YC3FBL9SPJQQ,LJX44,LJX44,34X6J5FLP2Z5FI91F7YC3FBL9SPJQQ,34X6J5FLP2Z5FI91F7YC3FBL9SPJQQ,338054,338054,1,0.03,"""",2076.5999999046326,67,"<div id=""message-div""><p>How confident are you that your clockwise/counter-clockwise response just now was accurate? Please rate your confidence on the slider bar below.</p></div>","""","""","""",50,"""","""","""",67,"2021-12-31 03:42:06",67.180.106.232,"Mozilla/5.0 (Windows NT 10.0; Win64; x64) AppleWebKit/537.36 (KHTML, like Gecko) Chrome/96.0.4664.110 Safari/537.36",WebKit,Chrome,96.0.4664.110,Windows,10.0,ac0f2dffeffaa78d35a552e03d03f0a8
19,1,"""",test_procedure,fixation,html-keyboard-response,151,211804,0.0-11.0-0.1-0.30,3SD15I2WEBVYX2RZ7BNPTJHHA9P63F,A3774HPOUKYTX7,34X6J5FLP2Z5FI91F7YC3FBL9SPJQQ,LJX44,LJX44,34X6J5FLP2Z5FI91F7YC3FBL9SPJQQ,34X6J5FLP2Z5FI91F7YC3FBL9SPJQQ,338054,338054,1,0.03,"""",null,null,"<div class = fixationbox><div class = fixation>+</div></div>","""","""","""","""","""","""","""","""","2021-12-31 03:42:06",67.180.106.232,"Mozilla/5.0 (Windows NT 10.0; Win64; x64) AppleWebKit/537.36 (KHTML, like Gecko) Chrome/96.0.4664.110 Safari/537.36",WebKit,Chrome,96.0.4664.110,Windows,10.0,ac0f2dffeffaa78d35a552e03d03f0a8
19,1,"""",test_procedure,stim_test,canvas-button-response,152,212635,0.0-11.0-0.1-1.30,3SD15I2WEBVYX2RZ7BNPTJHHA9P63F,A3774HPOUKYTX7,34X6J5FLP2Z5FI91F7YC3FBL9SPJQQ,LJX44,LJX44,34X6J5FLP2Z5FI91F7YC3FBL9SPJQQ,34X6J5FLP2Z5FI91F7YC3FBL9SPJQQ,338054,338054,1,0.03,"""",779.1999998092651,0,stim2,0,Counter-clockwise,true,"""",0.01,120,"""","""","2021-12-31 03:42:06",67.180.106.232,"Mozilla/5.0 (Windows NT 10.0; Win64; x64) AppleWebKit/537.36 (KHTML, like Gecko) Chrome/96.0.4664.110 Safari/537.36",WebKit,Chrome,96.0.4664.110,Windows,10.0,ac0f2dffeffaa78d35a552e03d03f0a8
19,1,"""",test_procedure,confidence_rating,html-slider-response,153,220414,0.0-11.0-0.1-2.30,3SD15I2WEBVYX2RZ7BNPTJHHA9P63F,A3774HPOUKYTX7,34X6J5FLP2Z5FI91F7YC3FBL9SPJQQ,LJX44,LJX44,34X6J5FLP2Z5FI91F7YC3FBL9SPJQQ,34X6J5FLP2Z5FI91F7YC3FBL9SPJQQ,338054,338054,1,0.03,"""",7777,38,"<div id=""message-div""><p>How confident are you that your clockwise/counter-clockwise response just now was accurate? Please rate your confidence on the slider bar below.</p></div>","""","""","""",50,"""","""","""",38,"2021-12-31 03:42:06",67.180.106.232,"Mozilla/5.0 (Windows NT 10.0; Win64; x64) AppleWebKit/537.36 (KHTML, like Gecko) Chrome/96.0.4664.110 Safari/537.36",WebKit,Chrome,96.0.4664.110,Windows,10.0,ac0f2dffeffaa78d35a552e03d03f0a8
19,1,"""",test_procedure,fixation,html-keyboard-response,154,220920,0.0-11.0-0.1-0.31,3SD15I2WEBVYX2RZ7BNPTJHHA9P63F,A3774HPOUKYTX7,34X6J5FLP2Z5FI91F7YC3FBL9SPJQQ,LJX44,LJX44,34X6J5FLP2Z5FI91F7YC3FBL9SPJQQ,34X6J5FLP2Z5FI91F7YC3FBL9SPJQQ,338054,338054,1,0.03,"""",null,null,"<div class = fixationbox><div class = fixation>+</div></div>","""","""","""","""","""","""","""","""","2021-12-31 03:42:06",67.180.106.232,"Mozilla/5.0 (Windows NT 10.0; Win64; x64) AppleWebKit/537.36 (KHTML, like Gecko) Chrome/96.0.4664.110 Safari/537.36",WebKit,Chrome,96.0.4664.110,Windows,10.0,ac0f2dffeffaa78d35a552e03d03f0a8
19,1,"""",test_procedure,stim_test,canvas-button-response,155,221973,0.0-11.0-0.1-1.31,3SD15I2WEBVYX2RZ7BNPTJHHA9P63F,A3774HPOUKYTX7,34X6J5FLP2Z5FI91F7YC3FBL9SPJQQ,LJX44,LJX44,34X6J5FLP2Z5FI91F7YC3FBL9SPJQQ,34X6J5FLP2Z5FI91F7YC3FBL9SPJQQ,338054,338054,1,0.03,"""",966.5999999046326,1,stim1,1,Clockwise,true,"""",0.01,60,"""","""","2021-12-31 03:42:06",67.180.106.232,"Mozilla/5.0 (Windows NT 10.0; Win64; x64) AppleWebKit/537.36 (KHTML, like Gecko) Chrome/96.0.4664.110 Safari/537.36",WebKit,Chrome,96.0.4664.110,Windows,10.0,ac0f2dffeffaa78d35a552e03d03f0a8
