run_id,condition,success,exp_stage,trial_id,trial_type,trial_index,time_elapsed,internal_node_id,hitId,workerId,assignmentId,a,tp_a,b,tp_b,c,tp_c,conditionmyown,cen_signal_contrast_stim,view_history,rt,response,stimulus,correct_response,correct_response_in_clockwise_or_counterclockwise,correct,slider_start,ctx_signal_contrast,cen_angle_in_degree,cen_signal_contrast_catchStim,confidence,recorded_at,ip,user_agent,device,browser,browser_version,platform,platform_version,source_code_version
14,3,true,pre-exp,fullscreen_starts,fullscreen,0,10892,0.0-0.0,3SD15I2WEBVYX2RZ7BNPTJHHA9P63F,A33VGSEJ44ORMF,352YTHGRO4E2Z7RDTAOEOZU1083H41,RT254,RT254,352YTHGRO4E2Z7RDTAOEOZU1083H41,352YTHGRO4E2Z7RDTAOEOZU1083H41,338054,338054,3,0.06,"""","""","""","""","""","""","""","""","""","""","""","""","2021-12-31 03:30:30",73.144.104.225,"Mozilla/5.0 (Windows NT 10.0; Win64; x64) AppleWebKit/537.36 (KHTML, like Gecko) Chrome/96.0.4664.110 Safari/537.36",WebKit,Chrome,96.0.4664.110,Windows,10.0,ac0f2dffeffaa78d35a552e03d03f0a8
14,3,"""",pre-exp,instructionspage1,instructions,1,15264,0.0-1.0-0.0,3SD15I2WEBVYX2RZ7BNPTJHHA9P63F,A33VGSEJ44ORMF,352YTHGRO4E2Z7RDTAOEOZU1083H41,RT254,RT254,352YTHGRO4E2Z7RDTAOEOZU1083H41,352YTHGRO4E2Z7RDTAOEOZU1083H41,338054,338054,3,0.06,"[{""page_index"":0,""viewing_time"":4361.0999999996275}]",4361.39999999851,"""","""","""","""","""","""","""","""","""","""","2021-12-31 03:30:30",73.144.104.225,"Mozilla/5.0 (Windows NT 10.0; Win64; x64) AppleWebKit/537.36 (KHTML, like Gecko) Chrome/96.0.4664.110 Safari/537.36",WebKit,Chrome,96.0.4664.110,Windows,10.0,ac0f2dffeffaa78d35a552e03d03f0a8
14,3,"""",pre-exp,instructions_block2,canvas-button-response,2,36070,0.0-2.0-0.0-0.0,3SD15I2WEBVYX2RZ7BNPTJHHA9P63F,A33VGSEJ44ORMF,352YTHGRO4E2Z7RDTAOEOZU1083H41,RT254,RT254,352YTHGRO4E2Z7RDTAOEOZU1083H41,352YTHGRO4E2Z7RDTAOEOZU1083H41,338054,338054,3,0.06,"""",20717.300000000745,1,instructionStim1,1,Clockwise,true,"""","""","""","""","""","2021-12-31 03:30:30",73.144.104.225,"Mozilla/5.0 (Windows NT 10.0; Win64; x64) AppleWebKit/537.36 (KHTML, like Gecko) Chrome/96.0.4664.110 Safari/537.36",WebKit,Chrome,96.0.4664.110,Windows,10.0,ac0f2dffeffaa78d35a552e03d03f0a8
14,3,"""",pre-exp,instructions_block3,canvas-button-response,3,38109,0.0-3.0-0.0-0.0,3SD15I2WEBVYX2RZ7BNPTJHHA9P63F,A33VGSEJ44ORMF,352YTHGRO4E2Z7RDTAOEOZU1083H41,RT254,RT254,352YTHGRO4E2Z7RDTAOEOZU1083H41,352YTHGRO4E2Z7RDTAOEOZU1083H41,338054,338054,3,0.06,"""",1977.0999999996275,0,instructionStim2,0,Counter-clockwise,true,"""","""","""","""","""","2021-12-31 03:30:30",73.144.104.225,"Mozilla/5.0 (Windows NT 10.0; Win64; x64) AppleWebKit/537.36 (KHTML, like Gecko) Chrome/96.0.4664.110 Safari/537.36",WebKit,Chrome,96.0.4664.110,Windows,10.0,ac0f2dffeffaa78d35a552e03d03f0a8
14,3,"""",pre-exp,instructions_block4,html-slider-response,4,53655,0.0-4.0,3SD15I2WEBVYX2RZ7BNPTJHHA9P63F,A33VGSEJ44ORMF,352YTHGRO4E2Z7RDTAOEOZU1083H41,RT254,RT254,352YTHGRO4E2Z7RDTAOEOZU1083H41,352YTHGRO4E2Z7RDTAOEOZU1083H41,338054,338054,3,0.06,"""",15544.699999999255,100,"<div id=""message-div""><p>After you have made your clockwise/counter-clockwise choice, <br>you will be asked to rate how confident you are that you were correct in your clockwise/counter-clockwise choice using a slide bar.<br>Please try to use the entire range of the slider bar.<br>For example, feel free to move the slider to the leftmost location if you are extremely uncertain about your choice, and the rightmost location if you are extremely certain.</p></div>","""","""","""",50,"""","""","""","""","2021-12-31 03:30:30",73.144.104.225,"Mozilla/5.0 (Windows NT 10.0; Win64; x64) AppleWebKit/537.36 (KHTML, like Gecko) Chrome/96.0.4664.110 Safari/537.36",WebKit,Chrome,96.0.4664.110,Windows,10.0,ac0f2dffeffaa78d35a552e03d03f0a8
14,3,"""",pre-exp,instructionspage5,instructions,5,60460,0.0-5.0-0.0,3SD15I2WEBVYX2RZ7BNPTJHHA9P63F,A33VGSEJ44ORMF,352YTHGRO4E2Z7RDTAOEOZU1083H41,RT254,RT254,352YTHGRO4E2Z7RDTAOEOZU1083H41,352YTHGRO4E2Z7RDTAOEOZU1083H41,338054,338054,3,0.06,"[{""page_index"":0,""viewing_time"":6801.5}]",6801.700000001118,"""","""","""","""","""","""","""","""","""","""","2021-12-31 03:30:30",73.144.104.225,"Mozilla/5.0 (Windows NT 10.0; Win64; x64) AppleWebKit/537.36 (KHTML, like Gecko) Chrome/96.0.4664.110 Safari/537.36",WebKit,Chrome,96.0.4664.110,Windows,10.0,ac0f2dffeffaa78d35a552e03d03f0a8
14,3,"""",pre-exp,instructionspage6,instructions,6,63164,0.0-6.0-0.0,3SD15I2WEBVYX2RZ7BNPTJHHA9P63F,A33VGSEJ44ORMF,352YTHGRO4E2Z7RDTAOEOZU1083H41,RT254,RT254,352YTHGRO4E2Z7RDTAOEOZU1083H41,352YTHGRO4E2Z7RDTAOEOZU1083H41,338054,338054,3,0.06,"[{""page_index"":0,""viewing_time"":2702.5999999996275}]",2702.7999999988824,"""","""","""","""","""","""","""","""","""","""","2021-12-31 03:30:30",73.144.104.225,"Mozilla/5.0 (Windows NT 10.0; Win64; x64) AppleWebKit/537.36 (KHTML, like Gecko) Chrome/96.0.4664.110 Safari/537.36",WebKit,Chrome,96.0.4664.110,Windows,10.0,ac0f2dffeffaa78d35a552e03d03f0a8
14,3,"""",pre-exp,instructionspage7,instructions,7,68799,0.0-7.0-0.0,3SD15I2WEBVYX2RZ7BNPTJHHA9P63F,A33VGSEJ44ORMF,352YTHGRO4E2Z7RDTAOEOZU1083H41,RT254,RT254,352YTHGRO4E2Z7RDTAOEOZU1083H41,352YTHGRO4E2Z7RDTAOEOZU1083H41,338054,338054,3,0.06,"[{""page_index"":0,""viewing_time"":5633.799999998882}]",5634.0999999996275,"""","""","""","""","""","""","""","""","""","""","2021-12-31 03:30:30",73.144.104.225,"Mozilla/5.0 (Windows NT 10.0; Win64; x64) AppleWebKit/537.36 (KHTML, like Gecko) Chrome/96.0.4664.110 Safari/537.36",WebKit,Chrome,96.0.4664.110,Windows,10.0,ac0f2dffeffaa78d35a552e03d03f0a8
14,3,"""",pre-exp,instructionspage8,instructions,8,71261,0.0-8.0-0.0,3SD15I2WEBVYX2RZ7BNPTJHHA9P63F,A33VGSEJ44ORMF,352YTHGRO4E2Z7RDTAOEOZU1083H41,RT254,RT254,352YTHGRO4E2Z7RDTAOEOZU1083H41,352YTHGRO4E2Z7RDTAOEOZU1083H41,338054,338054,3,0.06,"[{""page_index"":0,""viewing_time"":2460.7999999988824}]",2461.0999999996275,"""","""","""","""","""","""","""","""","""","""","2021-12-31 03:30:30",73.144.104.225,"Mozilla/5.0 (Windows NT 10.0; Win64; x64) AppleWebKit/537.36 (KHTML, like Gecko) Chrome/96.0.4664.110 Safari/537.36",WebKit,Chrome,96.0.4664.110,Windows,10.0,ac0f2dffeffaa78d35a552e03d03f0a8
14,3,"""",practice_procedure,fixation,html-keyboard-response,9,71780,0.0-9.0-0.0-0.0,3SD15I2WEBVYX2RZ7BNPTJHHA9P63F,A33VGSEJ44ORMF,352YTHGRO4E2Z7RDTAOEOZU1083H41,RT254,RT254,352YTHGRO4E2Z7RDTAOEOZU1083H41,352YTHGRO4E2Z7RDTAOEOZU1083H41,338054,338054,3,0.06,"""",null,null,"<div class = fixationbox><div class = fixation>+</div></div>","""","""","""","""","""","""","""","""","2021-12-31 03:30:30",73.144.104.225,"Mozilla/5.0 (Windows NT 10.0; Win64; x64) AppleWebKit/537.36 (KHTML, like Gecko) Chrome/96.0.4664.110 Safari/537.36",WebKit,Chrome,96.0.4664.110,Windows,10.0,ac0f2dffeffaa78d35a552e03d03f0a8
14,3,"""",practice_procedure,stim_practice,canvas-button-response,10,73469,0.0-9.0-0.0-1.0,3SD15I2WEBVYX2RZ7BNPTJHHA9P63F,A33VGSEJ44ORMF,352YTHGRO4E2Z7RDTAOEOZU1083H41,RT254,RT254,352YTHGRO4E2Z7RDTAOEOZU1083H41,352YTHGRO4E2Z7RDTAOEOZU1083H41,338054,338054,3,0.06,"""",1635.699999999255,0,practiceStim4,0,Counter-clockwise,true,"""",0.3,120,0.99,"""","2021-12-31 03:30:30",73.144.104.225,"Mozilla/5.0 (Windows NT 10.0; Win64; x64) AppleWebKit/537.36 (KHTML, like Gecko) Chrome/96.0.4664.110 Safari/537.36",WebKit,Chrome,96.0.4664.110,Windows,10.0,ac0f2dffeffaa78d35a552e03d03f0a8
14,3,"""",practice_procedure,confidence_rating,html-slider-response,11,78507,0.0-9.0-0.0-2.0,3SD15I2WEBVYX2RZ7BNPTJHHA9P63F,A33VGSEJ44ORMF,352YTHGRO4E2Z7RDTAOEOZU1083H41,RT254,RT254,352YTHGRO4E2Z7RDTAOEOZU1083H41,352YTHGRO4E2Z7RDTAOEOZU1083H41,338054,338054,3,0.06,"""",5036.200000001118,93,"<div id=""message-div""><p>How confident are you that your clockwise/counter-clockwise response just now was accurate? Please rate your confidence on the slider bar below.</p></div>","""","""","""",50,"""","""","""",93,"2021-12-31 03:30:30",73.144.104.225,"Mozilla/5.0 (Windows NT 10.0; Win64; x64) AppleWebKit/537.36 (KHTML, like Gecko) Chrome/96.0.4664.110 Safari/537.36",WebKit,Chrome,96.0.4664.110,Windows,10.0,ac0f2dffeffaa78d35a552e03d03f0a8
14,3,"""",practice_procedure,fixation,html-keyboard-response,12,79010,0.0-9.0-0.0-0.1,3SD15I2WEBVYX2RZ7BNPTJHHA9P63F,A33VGSEJ44ORMF,352YTHGRO4E2Z7RDTAOEOZU1083H41,RT254,RT254,352YTHGRO4E2Z7RDTAOEOZU1083H41,352YTHGRO4E2Z7RDTAOEOZU1083H41,338054,338054,3,0.06,"""",null,null,"<div class = fixationbox><div class = fixation>+</div></div>","""","""","""","""","""","""","""","""","2021-12-31 03:30:30",73.144.104.225,"Mozilla/5.0 (Windows NT 10.0; Win64; x64) AppleWebKit/537.36 (KHTML, like Gecko) Chrome/96.0.4664.110 Safari/537.36",WebKit,Chrome,96.0.4664.110,Windows,10.0,ac0f2dffeffaa78d35a552e03d03f0a8
14,3,"""",practice_procedure,stim_practice,canvas-button-response,13,80786,0.0-9.0-0.0-1.1,3SD15I2WEBVYX2RZ7BNPTJHHA9P63F,A33VGSEJ44ORMF,352YTHGRO4E2Z7RDTAOEOZU1083H41,RT254,RT254,352YTHGRO4E2Z7RDTAOEOZU1083H41,352YTHGRO4E2Z7RDTAOEOZU1083H41,338054,338054,3,0.06,"""",1731.2999999988824,1,practiceStim3,1,Clockwise,true,"""",0.3,60,0.99,"""","2021-12-31 03:30:30",73.144.104.225,"Mozilla/5.0 (Windows NT 10.0; Win64; x64) AppleWebKit/537.36 (KHTML, like Gecko) Chrome/96.0.4664.110 Safari/537.36",WebKit,Chrome,96.0.4664.110,Windows,10.0,ac0f2dffeffaa78d35a552e03d03f0a8
14,3,"""",practice_procedure,confidence_rating,html-slider-response,14,83976,0.0-9.0-0.0-2.1,3SD15I2WEBVYX2RZ7BNPTJHHA9P63F,A33VGSEJ44ORMF,352YTHGRO4E2Z7RDTAOEOZU1083H41,RT254,RT254,352YTHGRO4E2Z7RDTAOEOZU1083H41,352YTHGRO4E2Z7RDTAOEOZU1083H41,338054,338054,3,0.06,"""",3189.199999999255,86,"<div id=""message-div""><p>How confident are you that your clockwise/counter-clockwise response just now was accurate? Please rate your confidence on the slider bar below.</p></div>","""","""","""",50,"""","""","""",86,"2021-12-31 03:30:30",73.144.104.225,"Mozilla/5.0 (Windows NT 10.0; Win64; x64) AppleWebKit/537.36 (KHTML, like Gecko) Chrome/96.0.4664.110 Safari/537.36",WebKit,Chrome,96.0.4664.110,Windows,10.0,ac0f2dffeffaa78d35a552e03d03f0a8
14,3,"""",practice_procedure,fixation,html-keyboard-response,15,84479,0.0-9.0-0.0-0.2,3SD15I2WEBVYX2RZ7BNPTJHHA9P63F,A33VGSEJ44ORMF,352YTHGRO4E2Z7RDTAOEOZU1083H41,RT254,RT254,352YTHGRO4E2Z7RDTAOEOZU1083H41,352YTHGRO4E2Z7RDTAOEOZU1083H41,338054,338054,3,0.06,"""",null,null,"<div class = fixationbox><div class = fixation>+</div></div>","""","""","""","""","""","""","""","""","2021-12-31 03:30:30",73.144.104.225,"Mozilla/5.0 (Windows NT 10.0; Win64; x64) AppleWebKit/537.36 (KHTML, like Gecko) Chrome/96.0.4664.110 Safari/537.36",WebKit,Chrome,96.0.4664.110,Windows,10.0,ac0f2dffeffaa78d35a552e03d03f0a8
14,3,"""",practice_procedure,stim_practice,canvas-button-response,16,86015,0.0-9.0-0.0-1.2,3SD15I2WEBVYX2RZ7BNPTJHHA9P63F,A33VGSEJ44ORMF,352YTHGRO4E2Z7RDTAOEOZU1083H41,RT254,RT254,352YTHGRO4E2Z7RDTAOEOZU1083H41,352YTHGRO4E2Z7RDTAOEOZU1083H41,338054,338054,3,0.06,"""",1496,0,practiceStim2,0,Counter-clockwise,true,"""",0.01,120,0.99,"""","2021-12-31 03:30:30",73.144.104.225,"Mozilla/5.0 (Windows NT 10.0; Win64; x64) AppleWebKit/537.36 (KHTML, like Gecko) Chrome/96.0.4664.110 Safari/537.36",WebKit,Chrome,96.0.4664.110,Windows,10.0,ac0f2dffeffaa78d35a552e03d03f0a8
14,3,"""",practice_procedure,confidence_rating,html-slider-response,17,89101,0.0-9.0-0.0-2.2,3SD15I2WEBVYX2RZ7BNPTJHHA9P63F,A33VGSEJ44ORMF,352YTHGRO4E2Z7RDTAOEOZU1083H41,RT254,RT254,352YTHGRO4E2Z7RDTAOEOZU1083H41,352YTHGRO4E2Z7RDTAOEOZU1083H41,338054,338054,3,0.06,"""",3085.0999999996275,99,"<div id=""message-div""><p>How confident are you that your clockwise/counter-clockwise response just now was accurate? Please rate your confidence on the slider bar below.</p></div>","""","""","""",50,"""","""","""",99,"2021-12-31 03:30:30",73.144.104.225,"Mozilla/5.0 (Windows NT 10.0; Win64; x64) AppleWebKit/537.36 (KHTML, like Gecko) Chrome/96.0.4664.110 Safari/537.36",WebKit,Chrome,96.0.4664.110,Windows,10.0,ac0f2dffeffaa78d35a552e03d03f0a8
14,3,"""",practice_procedure,fixation,html-keyboard-response,18,89602,0.0-9.0-0.0-0.3,3SD15I2WEBVYX2RZ7BNPTJHHA9P63F,A33VGSEJ44ORMF,352YTHGRO4E2Z7RDTAOEOZU1083H41,RT254,RT254,352YTHGRO4E2Z7RDTAOEOZU1083H41,352YTHGRO4E2Z7RDTAOEOZU1083H41,338054,338054,3,0.06,"""",null,null,"<div class = fixationbox><div class = fixation>+</div></div>","""","""","""","""","""","""","""","""","2021-12-31 03:30:30",73.144.104.225,"Mozilla/5.0 (Windows NT 10.0; Win64; x64) AppleWebKit/537.36 (KHTML, like Gecko) Chrome/96.0.4664.110 Safari/537.36",WebKit,Chrome,96.0.4664.110,Windows,10.0,ac0f2dffeffaa78d35a552e03d03f0a8
14,3,"""",practice_procedure,stim_practice,canvas-button-response,19,91029,0.0-9.0-0.0-1.3,3SD15I2WEBVYX2RZ7BNPTJHHA9P63F,A33VGSEJ44ORMF,352YTHGRO4E2Z7RDTAOEOZU1083H41,RT254,RT254,352YTHGRO4E2Z7RDTAOEOZU1083H41,352YTHGRO4E2Z7RDTAOEOZU1083H41,338054,338054,3,0.06,"""",1393.0999999996275,0,practiceStim2,0,Counter-clockwise,true,"""",0.01,120,0.99,"""","2021-12-31 03:30:30",73.144.104.225,"Mozilla/5.0 (Windows NT 10.0; Win64; x64) AppleWebKit/537.36 (KHTML, like Gecko) Chrome/96.0.4664.110 Safari/537.36",WebKit,Chrome,96.0.4664.110,Windows,10.0,ac0f2dffeffaa78d35a552e03d03f0a8
14,3,"""",practice_procedure,confidence_rating,html-slider-response,20,94138,0.0-9.0-0.0-2.3,3SD15I2WEBVYX2RZ7BNPTJHHA9P63F,A33VGSEJ44ORMF,352YTHGRO4E2Z7RDTAOEOZU1083H41,RT254,RT254,352YTHGRO4E2Z7RDTAOEOZU1083H41,352YTHGRO4E2Z7RDTAOEOZU1083H41,338054,338054,3,0.06,"""",3105.5,93,"<div id=""message-div""><p>How confident are you that your clockwise/counter-clockwise response just now was accurate? Please rate your confidence on the slider bar below.</p></div>","""","""","""",50,"""","""","""",93,"2021-12-31 03:30:30",73.144.104.225,"Mozilla/5.0 (Windows NT 10.0; Win64; x64) AppleWebKit/537.36 (KHTML, like Gecko) Chrome/96.0.4664.110 Safari/537.36",WebKit,Chrome,96.0.4664.110,Windows,10.0,ac0f2dffeffaa78d35a552e03d03f0a8
14,3,"""",practice_procedure,fixation,html-keyboard-response,21,94641,0.0-9.0-0.0-0.4,3SD15I2WEBVYX2RZ7BNPTJHHA9P63F,A33VGSEJ44ORMF,352YTHGRO4E2Z7RDTAOEOZU1083H41,RT254,RT254,352YTHGRO4E2Z7RDTAOEOZU1083H41,352YTHGRO4E2Z7RDTAOEOZU1083H41,338054,338054,3,0.06,"""",null,null,"<div class = fixationbox><div class = fixation>+</div></div>","""","""","""","""","""","""","""","""","2021-12-31 03:30:30",73.144.104.225,"Mozilla/5.0 (Windows NT 10.0; Win64; x64) AppleWebKit/537.36 (KHTML, like Gecko) Chrome/96.0.4664.110 Safari/537.36",WebKit,Chrome,96.0.4664.110,Windows,10.0,ac0f2dffeffaa78d35a552e03d03f0a8
14,3,"""",practice_procedure,stim_practice,canvas-button-response,22,95947,0.0-9.0-0.0-1.4,3SD15I2WEBVYX2RZ7BNPTJHHA9P63F,A33VGSEJ44ORMF,352YTHGRO4E2Z7RDTAOEOZU1083H41,RT254,RT254,352YTHGRO4E2Z7RDTAOEOZU1083H41,352YTHGRO4E2Z7RDTAOEOZU1083H41,338054,338054,3,0.06,"""",1272.699999999255,1,practiceStim1,1,Clockwise,true,"""",0.01,60,0.99,"""","2021-12-31 03:30:30",73.144.104.225,"Mozilla/5.0 (Windows NT 10.0; Win64; x64) AppleWebKit/537.36 (KHTML, like Gecko) Chrome/96.0.4664.110 Safari/537.36",WebKit,Chrome,96.0.4664.110,Windows,10.0,ac0f2dffeffaa78d35a552e03d03f0a8
14,3,"""",practice_procedure,confidence_rating,html-slider-response,23,99688,0.0-9.0-0.0-2.4,3SD15I2WEBVYX2RZ7BNPTJHHA9P63F,A33VGSEJ44ORMF,352YTHGRO4E2Z7RDTAOEOZU1083H41,RT254,RT254,352YTHGRO4E2Z7RDTAOEOZU1083H41,352YTHGRO4E2Z7RDTAOEOZU1083H41,338054,338054,3,0.06,"""",3740.5999999996275,99,"<div id=""message-div""><p>How confident are you that your clockwise/counter-clockwise response just now was accurate? Please rate your confidence on the slider bar below.</p></div>","""","""","""",50,"""","""","""",99,"2021-12-31 03:30:30",73.144.104.225,"Mozilla/5.0 (Windows NT 10.0; Win64; x64) AppleWebKit/537.36 (KHTML, like Gecko) Chrome/96.0.4664.110 Safari/537.36",WebKit,Chrome,96.0.4664.110,Windows,10.0,ac0f2dffeffaa78d35a552e03d03f0a8
14,3,"""",practice_procedure,fixation,html-keyboard-response,24,100191,0.0-9.0-0.0-0.5,3SD15I2WEBVYX2RZ7BNPTJHHA9P63F,A33VGSEJ44ORMF,352YTHGRO4E2Z7RDTAOEOZU1083H41,RT254,RT254,352YTHGRO4E2Z7RDTAOEOZU1083H41,352YTHGRO4E2Z7RDTAOEOZU1083H41,338054,338054,3,0.06,"""",null,null,"<div class = fixationbox><div class = fixation>+</div></div>","""","""","""","""","""","""","""","""","2021-12-31 03:30:30",73.144.104.225,"Mozilla/5.0 (Windows NT 10.0; Win64; x64) AppleWebKit/537.36 (KHTML, like Gecko) Chrome/96.0.4664.110 Safari/537.36",WebKit,Chrome,96.0.4664.110,Windows,10.0,ac0f2dffeffaa78d35a552e03d03f0a8
14,3,"""",practice_procedure,stim_practice,canvas-button-response,25,101944,0.0-9.0-0.0-1.5,3SD15I2WEBVYX2RZ7BNPTJHHA9P63F,A33VGSEJ44ORMF,352YTHGRO4E2Z7RDTAOEOZU1083H41,RT254,RT254,352YTHGRO4E2Z7RDTAOEOZU1083H41,352YTHGRO4E2Z7RDTAOEOZU1083H41,338054,338054,3,0.06,"""",1721.5999999996275,1,practiceStim1,1,Clockwise,true,"""",0.01,60,0.99,"""","2021-12-31 03:30:30",73.144.104.225,"Mozilla/5.0 (Windows NT 10.0; Win64; x64) AppleWebKit/537.36 (KHTML, like Gecko) Chrome/96.0.4664.110 Safari/537.36",WebKit,Chrome,96.0.4664.110,Windows,10.0,ac0f2dffeffaa78d35a552e03d03f0a8
14,3,"""",practice_procedure,confidence_rating,html-slider-response,26,104246,0.0-9.0-0.0-2.5,3SD15I2WEBVYX2RZ7BNPTJHHA9P63F,A33VGSEJ44ORMF,352YTHGRO4E2Z7RDTAOEOZU1083H41,RT254,RT254,352YTHGRO4E2Z7RDTAOEOZU1083H41,352YTHGRO4E2Z7RDTAOEOZU1083H41,338054,338054,3,0.06,"""",2301.9000000003725,79,"<div id=""message-div""><p>How confident are you that your clockwise/counter-clockwise response just now was accurate? Please rate your confidence on the slider bar below.</p></div>","""","""","""",50,"""","""","""",79,"2021-12-31 03:30:30",73.144.104.225,"Mozilla/5.0 (Windows NT 10.0; Win64; x64) AppleWebKit/537.36 (KHTML, like Gecko) Chrome/96.0.4664.110 Safari/537.36",WebKit,Chrome,96.0.4664.110,Windows,10.0,ac0f2dffeffaa78d35a552e03d03f0a8
14,3,"""",practice_procedure,fixation,html-keyboard-response,27,104748,0.0-9.0-0.0-0.6,3SD15I2WEBVYX2RZ7BNPTJHHA9P63F,A33VGSEJ44ORMF,352YTHGRO4E2Z7RDTAOEOZU1083H41,RT254,RT254,352YTHGRO4E2Z7RDTAOEOZU1083H41,352YTHGRO4E2Z7RDTAOEOZU1083H41,338054,338054,3,0.06,"""",null,null,"<div class = fixationbox><div class = fixation>+</div></div>","""","""","""","""","""","""","""","""","2021-12-31 03:30:30",73.144.104.225,"Mozilla/5.0 (Windows NT 10.0; Win64; x64) AppleWebKit/537.36 (KHTML, like Gecko) Chrome/96.0.4664.110 Safari/537.36",WebKit,Chrome,96.0.4664.110,Windows,10.0,ac0f2dffeffaa78d35a552e03d03f0a8
14,3,"""",practice_procedure,stim_practice,canvas-button-response,28,106118,0.0-9.0-0.0-1.6,3SD15I2WEBVYX2RZ7BNPTJHHA9P63F,A33VGSEJ44ORMF,352YTHGRO4E2Z7RDTAOEOZU1083H41,RT254,RT254,352YTHGRO4E2Z7RDTAOEOZU1083H41,352YTHGRO4E2Z7RDTAOEOZU1083H41,338054,338054,3,0.06,"""",1319.699999999255,0,practiceStim2,0,Counter-clockwise,true,"""",0.01,120,0.99,"""","2021-12-31 03:30:30",73.144.104.225,"Mozilla/5.0 (Windows NT 10.0; Win64; x64) AppleWebKit/537.36 (KHTML, like Gecko) Chrome/96.0.4664.110 Safari/537.36",WebKit,Chrome,96.0.4664.110,Windows,10.0,ac0f2dffeffaa78d35a552e03d03f0a8
14,3,"""",practice_procedure,confidence_rating,html-slider-response,29,108629,0.0-9.0-0.0-2.6,3SD15I2WEBVYX2RZ7BNPTJHHA9P63F,A33VGSEJ44ORMF,352YTHGRO4E2Z7RDTAOEOZU1083H41,RT254,RT254,352YTHGRO4E2Z7RDTAOEOZU1083H41,352YTHGRO4E2Z7RDTAOEOZU1083H41,338054,338054,3,0.06,"""",2507.800000000745,83,"<div id=""message-div""><p>How confident are you that your clockwise/counter-clockwise response just now was accurate? Please rate your confidence on the slider bar below.</p></div>","""","""","""",50,"""","""","""",83,"2021-12-31 03:30:30",73.144.104.225,"Mozilla/5.0 (Windows NT 10.0; Win64; x64) AppleWebKit/537.36 (KHTML, like Gecko) Chrome/96.0.4664.110 Safari/537.36",WebKit,Chrome,96.0.4664.110,Windows,10.0,ac0f2dffeffaa78d35a552e03d03f0a8
14,3,"""",practice_procedure,fixation,html-keyboard-response,30,109130,0.0-9.0-0.0-0.7,3SD15I2WEBVYX2RZ7BNPTJHHA9P63F,A33VGSEJ44ORMF,352YTHGRO4E2Z7RDTAOEOZU1083H41,RT254,RT254,352YTHGRO4E2Z7RDTAOEOZU1083H41,352YTHGRO4E2Z7RDTAOEOZU1083H41,338054,338054,3,0.06,"""",null,null,"<div class = fixationbox><div class = fixation>+</div></div>","""","""","""","""","""","""","""","""","2021-12-31 03:30:30",73.144.104.225,"Mozilla/5.0 (Windows NT 10.0; Win64; x64) AppleWebKit/537.36 (KHTML, like Gecko) Chrome/96.0.4664.110 Safari/537.36",WebKit,Chrome,96.0.4664.110,Windows,10.0,ac0f2dffeffaa78d35a552e03d03f0a8
14,3,"""",practice_procedure,stim_practice,canvas-button-response,31,110228,0.0-9.0-0.0-1.7,3SD15I2WEBVYX2RZ7BNPTJHHA9P63F,A33VGSEJ44ORMF,352YTHGRO4E2Z7RDTAOEOZU1083H41,RT254,RT254,352YTHGRO4E2Z7RDTAOEOZU1083H41,352YTHGRO4E2Z7RDTAOEOZU1083H41,338054,338054,3,0.06,"""",1068.2999999988824,1,practiceStim3,1,Clockwise,true,"""",0.3,60,0.99,"""","2021-12-31 03:30:30",73.144.104.225,"Mozilla/5.0 (Windows NT 10.0; Win64; x64) AppleWebKit/537.36 (KHTML, like Gecko) Chrome/96.0.4664.110 Safari/537.36",WebKit,Chrome,96.0.4664.110,Windows,10.0,ac0f2dffeffaa78d35a552e03d03f0a8
14,3,"""",practice_procedure,confidence_rating,html-slider-response,32,112819,0.0-9.0-0.0-2.7,3SD15I2WEBVYX2RZ7BNPTJHHA9P63F,A33VGSEJ44ORMF,352YTHGRO4E2Z7RDTAOEOZU1083H41,RT254,RT254,352YTHGRO4E2Z7RDTAOEOZU1083H41,352YTHGRO4E2Z7RDTAOEOZU1083H41,338054,338054,3,0.06,"""",2589.4000000003725,96,"<div id=""message-div""><p>How confident are you that your clockwise/counter-clockwise response just now was accurate? Please rate your confidence on the slider bar below.</p></div>","""","""","""",50,"""","""","""",96,"2021-12-31 03:30:30",73.144.104.225,"Mozilla/5.0 (Windows NT 10.0; Win64; x64) AppleWebKit/537.36 (KHTML, like Gecko) Chrome/96.0.4664.110 Safari/537.36",WebKit,Chrome,96.0.4664.110,Windows,10.0,ac0f2dffeffaa78d35a552e03d03f0a8
14,3,"""",practice_procedure,fixation,html-keyboard-response,33,113324,0.0-9.0-0.0-0.8,3SD15I2WEBVYX2RZ7BNPTJHHA9P63F,A33VGSEJ44ORMF,352YTHGRO4E2Z7RDTAOEOZU1083H41,RT254,RT254,352YTHGRO4E2Z7RDTAOEOZU1083H41,352YTHGRO4E2Z7RDTAOEOZU1083H41,338054,338054,3,0.06,"""",null,null,"<div class = fixationbox><div class = fixation>+</div></div>","""","""","""","""","""","""","""","""","2021-12-31 03:30:30",73.144.104.225,"Mozilla/5.0 (Windows NT 10.0; Win64; x64) AppleWebKit/537.36 (KHTML, like Gecko) Chrome/96.0.4664.110 Safari/537.36",WebKit,Chrome,96.0.4664.110,Windows,10.0,ac0f2dffeffaa78d35a552e03d03f0a8
14,3,"""",practice_procedure,stim_practice,canvas-button-response,34,114521,0.0-9.0-0.0-1.8,3SD15I2WEBVYX2RZ7BNPTJHHA9P63F,A33VGSEJ44ORMF,352YTHGRO4E2Z7RDTAOEOZU1083H41,RT254,RT254,352YTHGRO4E2Z7RDTAOEOZU1083H41,352YTHGRO4E2Z7RDTAOEOZU1083H41,338054,338054,3,0.06,"""",1163.0999999996275,1,practiceStim1,1,Clockwise,true,"""",0.01,60,0.99,"""","2021-12-31 03:30:30",73.144.104.225,"Mozilla/5.0 (Windows NT 10.0; Win64; x64) AppleWebKit/537.36 (KHTML, like Gecko) Chrome/96.0.4664.110 Safari/537.36",WebKit,Chrome,96.0.4664.110,Windows,10.0,ac0f2dffeffaa78d35a552e03d03f0a8
14,3,"""",practice_procedure,confidence_rating,html-slider-response,35,116480,0.0-9.0-0.0-2.8,3SD15I2WEBVYX2RZ7BNPTJHHA9P63F,A33VGSEJ44ORMF,352YTHGRO4E2Z7RDTAOEOZU1083H41,RT254,RT254,352YTHGRO4E2Z7RDTAOEOZU1083H41,352YTHGRO4E2Z7RDTAOEOZU1083H41,338054,338054,3,0.06,"""",1958.199999999255,89,"<div id=""message-div""><p>How confident are you that your clockwise/counter-clockwise response just now was accurate? Please rate your confidence on the slider bar below.</p></div>","""","""","""",50,"""","""","""",89,"2021-12-31 03:30:30",73.144.104.225,"Mozilla/5.0 (Windows NT 10.0; Win64; x64) AppleWebKit/537.36 (KHTML, like Gecko) Chrome/96.0.4664.110 Safari/537.36",WebKit,Chrome,96.0.4664.110,Windows,10.0,ac0f2dffeffaa78d35a552e03d03f0a8
14,3,"""",practice_procedure,fixation,html-keyboard-response,36,116981,0.0-9.0-0.0-0.9,3SD15I2WEBVYX2RZ7BNPTJHHA9P63F,A33VGSEJ44ORMF,352YTHGRO4E2Z7RDTAOEOZU1083H41,RT254,RT254,352YTHGRO4E2Z7RDTAOEOZU1083H41,352YTHGRO4E2Z7RDTAOEOZU1083H41,338054,338054,3,0.06,"""",null,null,"<div class = fixationbox><div class = fixation>+</div></div>","""","""","""","""","""","""","""","""","2021-12-31 03:30:30",73.144.104.225,"Mozilla/5.0 (Windows NT 10.0; Win64; x64) AppleWebKit/537.36 (KHTML, like Gecko) Chrome/96.0.4664.110 Safari/537.36",WebKit,Chrome,96.0.4664.110,Windows,10.0,ac0f2dffeffaa78d35a552e03d03f0a8
14,3,"""",practice_procedure,stim_practice,canvas-button-response,37,118392,0.0-9.0-0.0-1.9,3SD15I2WEBVYX2RZ7BNPTJHHA9P63F,A33VGSEJ44ORMF,352YTHGRO4E2Z7RDTAOEOZU1083H41,RT254,RT254,352YTHGRO4E2Z7RDTAOEOZU1083H41,352YTHGRO4E2Z7RDTAOEOZU1083H41,338054,338054,3,0.06,"""",1379.199999999255,1,practiceStim3,1,Clockwise,true,"""",0.3,60,0.99,"""","2021-12-31 03:30:30",73.144.104.225,"Mozilla/5.0 (Windows NT 10.0; Win64; x64) AppleWebKit/537.36 (KHTML, like Gecko) Chrome/96.0.4664.110 Safari/537.36",WebKit,Chrome,96.0.4664.110,Windows,10.0,ac0f2dffeffaa78d35a552e03d03f0a8
14,3,"""",practice_procedure,confidence_rating,html-slider-response,38,122079,0.0-9.0-0.0-2.9,3SD15I2WEBVYX2RZ7BNPTJHHA9P63F,A33VGSEJ44ORMF,352YTHGRO4E2Z7RDTAOEOZU1083H41,RT254,RT254,352YTHGRO4E2Z7RDTAOEOZU1083H41,352YTHGRO4E2Z7RDTAOEOZU1083H41,338054,338054,3,0.06,"""",3685.5,95,"<div id=""message-div""><p>How confident are you that your clockwise/counter-clockwise response just now was accurate? Please rate your confidence on the slider bar below.</p></div>","""","""","""",50,"""","""","""",95,"2021-12-31 03:30:30",73.144.104.225,"Mozilla/5.0 (Windows NT 10.0; Win64; x64) AppleWebKit/537.36 (KHTML, like Gecko) Chrome/96.0.4664.110 Safari/537.36",WebKit,Chrome,96.0.4664.110,Windows,10.0,ac0f2dffeffaa78d35a552e03d03f0a8
14,3,"""",pre-test,test_instruction,instructions,39,127956,0.0-10.0,3SD15I2WEBVYX2RZ7BNPTJHHA9P63F,A33VGSEJ44ORMF,352YTHGRO4E2Z7RDTAOEOZU1083H41,RT254,RT254,352YTHGRO4E2Z7RDTAOEOZU1083H41,352YTHGRO4E2Z7RDTAOEOZU1083H41,338054,338054,3,0.06,"[{""page_index"":0,""viewing_time"":5874.0999999996275}]",5874.4000000003725,"""","""","""","""","""","""","""","""","""","""","2021-12-31 03:30:30",73.144.104.225,"Mozilla/5.0 (Windows NT 10.0; Win64; x64) AppleWebKit/537.36 (KHTML, like Gecko) Chrome/96.0.4664.110 Safari/537.36",WebKit,Chrome,96.0.4664.110,Windows,10.0,ac0f2dffeffaa78d35a552e03d03f0a8
14,3,"""",test_procedure,fixation,html-keyboard-response,40,128460,0.0-11.0-0.0-0.0,3SD15I2WEBVYX2RZ7BNPTJHHA9P63F,A33VGSEJ44ORMF,352YTHGRO4E2Z7RDTAOEOZU1083H41,RT254,RT254,352YTHGRO4E2Z7RDTAOEOZU1083H41,352YTHGRO4E2Z7RDTAOEOZU1083H41,338054,338054,3,0.06,"""",null,null,"<div class = fixationbox><div class = fixation>+</div></div>","""","""","""","""","""","""","""","""","2021-12-31 03:30:30",73.144.104.225,"Mozilla/5.0 (Windows NT 10.0; Win64; x64) AppleWebKit/537.36 (KHTML, like Gecko) Chrome/96.0.4664.110 Safari/537.36",WebKit,Chrome,96.0.4664.110,Windows,10.0,ac0f2dffeffaa78d35a552e03d03f0a8
14,3,"""",test_procedure,stim_test,canvas-button-response,41,130260,0.0-11.0-0.0-1.0,3SD15I2WEBVYX2RZ7BNPTJHHA9P63F,A33VGSEJ44ORMF,352YTHGRO4E2Z7RDTAOEOZU1083H41,RT254,RT254,352YTHGRO4E2Z7RDTAOEOZU1083H41,352YTHGRO4E2Z7RDTAOEOZU1083H41,338054,338054,3,0.06,"""",1737.5999999996275,1,stim1,1,Clockwise,true,"""",0.01,60,"""","""","2021-12-31 03:30:30",73.144.104.225,"Mozilla/5.0 (Windows NT 10.0; Win64; x64) AppleWebKit/537.36 (KHTML, like Gecko) Chrome/96.0.4664.110 Safari/537.36",WebKit,Chrome,96.0.4664.110,Windows,10.0,ac0f2dffeffaa78d35a552e03d03f0a8
14,3,"""",test_procedure,confidence_rating,html-slider-response,42,132459,0.0-11.0-0.0-2.0,3SD15I2WEBVYX2RZ7BNPTJHHA9P63F,A33VGSEJ44ORMF,352YTHGRO4E2Z7RDTAOEOZU1083H41,RT254,RT254,352YTHGRO4E2Z7RDTAOEOZU1083H41,352YTHGRO4E2Z7RDTAOEOZU1083H41,338054,338054,3,0.06,"""",2197.300000000745,50,"<div id=""message-div""><p>How confident are you that your clockwise/counter-clockwise response just now was accurate? Please rate your confidence on the slider bar below.</p></div>","""","""","""",50,"""","""","""",50,"2021-12-31 03:30:30",73.144.104.225,"Mozilla/5.0 (Windows NT 10.0; Win64; x64) AppleWebKit/537.36 (KHTML, like Gecko) Chrome/96.0.4664.110 Safari/537.36",WebKit,Chrome,96.0.4664.110,Windows,10.0,ac0f2dffeffaa78d35a552e03d03f0a8
14,3,"""",test_procedure,fixation,html-keyboard-response,43,132960,0.0-11.0-0.0-0.1,3SD15I2WEBVYX2RZ7BNPTJHHA9P63F,A33VGSEJ44ORMF,352YTHGRO4E2Z7RDTAOEOZU1083H41,RT254,RT254,352YTHGRO4E2Z7RDTAOEOZU1083H41,352YTHGRO4E2Z7RDTAOEOZU1083H41,338054,338054,3,0.06,"""",null,null,"<div class = fixationbox><div class = fixation>+</div></div>","""","""","""","""","""","""","""","""","2021-12-31 03:30:30",73.144.104.225,"Mozilla/5.0 (Windows NT 10.0; Win64; x64) AppleWebKit/537.36 (KHTML, like Gecko) Chrome/96.0.4664.110 Safari/537.36",WebKit,Chrome,96.0.4664.110,Windows,10.0,ac0f2dffeffaa78d35a552e03d03f0a8
14,3,"""",test_procedure,stim_test,canvas-button-response,44,134970,0.0-11.0-0.0-1.1,3SD15I2WEBVYX2RZ7BNPTJHHA9P63F,A33VGSEJ44ORMF,352YTHGRO4E2Z7RDTAOEOZU1083H41,RT254,RT254,352YTHGRO4E2Z7RDTAOEOZU1083H41,352YTHGRO4E2Z7RDTAOEOZU1083H41,338054,338054,3,0.06,"""",1977.699999999255,1,stim3,1,Clockwise,true,"""",0.3,60,"""","""","2021-12-31 03:30:30",73.144.104.225,"Mozilla/5.0 (Windows NT 10.0; Win64; x64) AppleWebKit/537.36 (KHTML, like Gecko) Chrome/96.0.4664.110 Safari/537.36",WebKit,Chrome,96.0.4664.110,Windows,10.0,ac0f2dffeffaa78d35a552e03d03f0a8
14,3,"""",test_procedure,confidence_rating,html-slider-response,45,137272,0.0-11.0-0.0-2.1,3SD15I2WEBVYX2RZ7BNPTJHHA9P63F,A33VGSEJ44ORMF,352YTHGRO4E2Z7RDTAOEOZU1083H41,RT254,RT254,352YTHGRO4E2Z7RDTAOEOZU1083H41,352YTHGRO4E2Z7RDTAOEOZU1083H41,338054,338054,3,0.06,"""",2299.39999999851,37,"<div id=""message-div""><p>How confident are you that your clockwise/counter-clockwise response just now was accurate? Please rate your confidence on the slider bar below.</p></div>","""","""","""",50,"""","""","""",37,"2021-12-31 03:30:30",73.144.104.225,"Mozilla/5.0 (Windows NT 10.0; Win64; x64) AppleWebKit/537.36 (KHTML, like Gecko) Chrome/96.0.4664.110 Safari/537.36",WebKit,Chrome,96.0.4664.110,Windows,10.0,ac0f2dffeffaa78d35a552e03d03f0a8
14,3,"""",test_procedure,fixation,html-keyboard-response,46,137773,0.0-11.0-0.0-0.2,3SD15I2WEBVYX2RZ7BNPTJHHA9P63F,A33VGSEJ44ORMF,352YTHGRO4E2Z7RDTAOEOZU1083H41,RT254,RT254,352YTHGRO4E2Z7RDTAOEOZU1083H41,352YTHGRO4E2Z7RDTAOEOZU1083H41,338054,338054,3,0.06,"""",null,null,"<div class = fixationbox><div class = fixation>+</div></div>","""","""","""","""","""","""","""","""","2021-12-31 03:30:30",73.144.104.225,"Mozilla/5.0 (Windows NT 10.0; Win64; x64) AppleWebKit/537.36 (KHTML, like Gecko) Chrome/96.0.4664.110 Safari/537.36",WebKit,Chrome,96.0.4664.110,Windows,10.0,ac0f2dffeffaa78d35a552e03d03f0a8
14,3,"""",test_procedure,stim_test,canvas-button-response,47,139511,0.0-11.0-0.0-1.2,3SD15I2WEBVYX2RZ7BNPTJHHA9P63F,A33VGSEJ44ORMF,352YTHGRO4E2Z7RDTAOEOZU1083H41,RT254,RT254,352YTHGRO4E2Z7RDTAOEOZU1083H41,352YTHGRO4E2Z7RDTAOEOZU1083H41,338054,338054,3,0.06,"""",1703,1,stim4,0,Counter-clockwise,false,"""",0.3,120,"""","""","2021-12-31 03:30:30",73.144.104.225,"Mozilla/5.0 (Windows NT 10.0; Win64; x64) AppleWebKit/537.36 (KHTML, like Gecko) Chrome/96.0.4664.110 Safari/537.36",WebKit,Chrome,96.0.4664.110,Windows,10.0,ac0f2dffeffaa78d35a552e03d03f0a8
14,3,"""",test_procedure,confidence_rating,html-slider-response,48,143181,0.0-11.0-0.0-2.2,3SD15I2WEBVYX2RZ7BNPTJHHA9P63F,A33VGSEJ44ORMF,352YTHGRO4E2Z7RDTAOEOZU1083H41,RT254,RT254,352YTHGRO4E2Z7RDTAOEOZU1083H41,352YTHGRO4E2Z7RDTAOEOZU1083H41,338054,338054,3,0.06,"""",3669.5999999996275,31,"<div id=""message-div""><p>How confident are you that your clockwise/counter-clockwise response just now was accurate? Please rate your confidence on the slider bar below.</p></div>","""","""","""",50,"""","""","""",31,"2021-12-31 03:30:30",73.144.104.225,"Mozilla/5.0 (Windows NT 10.0; Win64; x64) AppleWebKit/537.36 (KHTML, like Gecko) Chrome/96.0.4664.110 Safari/537.36",WebKit,Chrome,96.0.4664.110,Windows,10.0,ac0f2dffeffaa78d35a552e03d03f0a8
14,3,"""",test_procedure,fixation,html-keyboard-response,49,143684,0.0-11.0-0.0-0.3,3SD15I2WEBVYX2RZ7BNPTJHHA9P63F,A33VGSEJ44ORMF,352YTHGRO4E2Z7RDTAOEOZU1083H41,RT254,RT254,352YTHGRO4E2Z7RDTAOEOZU1083H41,352YTHGRO4E2Z7RDTAOEOZU1083H41,338054,338054,3,0.06,"""",null,null,"<div class = fixationbox><div class = fixation>+</div></div>","""","""","""","""","""","""","""","""","2021-12-31 03:30:30",73.144.104.225,"Mozilla/5.0 (Windows NT 10.0; Win64; x64) AppleWebKit/537.36 (KHTML, like Gecko) Chrome/96.0.4664.110 Safari/537.36",WebKit,Chrome,96.0.4664.110,Windows,10.0,ac0f2dffeffaa78d35a552e03d03f0a8
14,3,"""",test_procedure,stim_test,canvas-button-response,50,145660,0.0-11.0-0.0-1.3,3SD15I2WEBVYX2RZ7BNPTJHHA9P63F,A33VGSEJ44ORMF,352YTHGRO4E2Z7RDTAOEOZU1083H41,RT254,RT254,352YTHGRO4E2Z7RDTAOEOZU1083H41,352YTHGRO4E2Z7RDTAOEOZU1083H41,338054,338054,3,0.06,"""",1943.1000000014901,0,catchStim2,0,Counter-clockwise,true,"""",0.01,120,0.6,"""","2021-12-31 03:30:30",73.144.104.225,"Mozilla/5.0 (Windows NT 10.0; Win64; x64) AppleWebKit/537.36 (KHTML, like Gecko) Chrome/96.0.4664.110 Safari/537.36",WebKit,Chrome,96.0.4664.110,Windows,10.0,ac0f2dffeffaa78d35a552e03d03f0a8
14,3,"""",test_procedure,confidence_rating,html-slider-response,51,148483,0.0-11.0-0.0-2.3,3SD15I2WEBVYX2RZ7BNPTJHHA9P63F,A33VGSEJ44ORMF,352YTHGRO4E2Z7RDTAOEOZU1083H41,RT254,RT254,352YTHGRO4E2Z7RDTAOEOZU1083H41,352YTHGRO4E2Z7RDTAOEOZU1083H41,338054,338054,3,0.06,"""",2821.5999999996275,93,"<div id=""message-div""><p>How confident are you that your clockwise/counter-clockwise response just now was accurate? Please rate your confidence on the slider bar below.</p></div>","""","""","""",50,"""","""","""",93,"2021-12-31 03:30:30",73.144.104.225,"Mozilla/5.0 (Windows NT 10.0; Win64; x64) AppleWebKit/537.36 (KHTML, like Gecko) Chrome/96.0.4664.110 Safari/537.36",WebKit,Chrome,96.0.4664.110,Windows,10.0,ac0f2dffeffaa78d35a552e03d03f0a8
14,3,"""",test_procedure,fixation,html-keyboard-response,52,148984,0.0-11.0-0.0-0.4,3SD15I2WEBVYX2RZ7BNPTJHHA9P63F,A33VGSEJ44ORMF,352YTHGRO4E2Z7RDTAOEOZU1083H41,RT254,RT254,352YTHGRO4E2Z7RDTAOEOZU1083H41,352YTHGRO4E2Z7RDTAOEOZU1083H41,338054,338054,3,0.06,"""",null,null,"<div class = fixationbox><div class = fixation>+</div></div>","""","""","""","""","""","""","""","""","2021-12-31 03:30:30",73.144.104.225,"Mozilla/5.0 (Windows NT 10.0; Win64; x64) AppleWebKit/537.36 (KHTML, like Gecko) Chrome/96.0.4664.110 Safari/537.36",WebKit,Chrome,96.0.4664.110,Windows,10.0,ac0f2dffeffaa78d35a552e03d03f0a8
14,3,"""",test_procedure,stim_test,canvas-button-response,53,151050,0.0-11.0-0.0-1.4,3SD15I2WEBVYX2RZ7BNPTJHHA9P63F,A33VGSEJ44ORMF,352YTHGRO4E2Z7RDTAOEOZU1083H41,RT254,RT254,352YTHGRO4E2Z7RDTAOEOZU1083H41,352YTHGRO4E2Z7RDTAOEOZU1083H41,338054,338054,3,0.06,"""",2031.5,1,stim1,1,Clockwise,true,"""",0.01,60,"""","""","2021-12-31 03:30:30",73.144.104.225,"Mozilla/5.0 (Windows NT 10.0; Win64; x64) AppleWebKit/537.36 (KHTML, like Gecko) Chrome/96.0.4664.110 Safari/537.36",WebKit,Chrome,96.0.4664.110,Windows,10.0,ac0f2dffeffaa78d35a552e03d03f0a8
14,3,"""",test_procedure,confidence_rating,html-slider-response,54,153570,0.0-11.0-0.0-2.4,3SD15I2WEBVYX2RZ7BNPTJHHA9P63F,A33VGSEJ44ORMF,352YTHGRO4E2Z7RDTAOEOZU1083H41,RT254,RT254,352YTHGRO4E2Z7RDTAOEOZU1083H41,352YTHGRO4E2Z7RDTAOEOZU1083H41,338054,338054,3,0.06,"""",2517.2999999988824,48,"<div id=""message-div""><p>How confident are you that your clockwise/counter-clockwise response just now was accurate? Please rate your confidence on the slider bar below.</p></div>","""","""","""",50,"""","""","""",48,"2021-12-31 03:30:30",73.144.104.225,"Mozilla/5.0 (Windows NT 10.0; Win64; x64) AppleWebKit/537.36 (KHTML, like Gecko) Chrome/96.0.4664.110 Safari/537.36",WebKit,Chrome,96.0.4664.110,Windows,10.0,ac0f2dffeffaa78d35a552e03d03f0a8
14,3,"""",test_procedure,fixation,html-keyboard-response,55,154072,0.0-11.0-0.0-0.5,3SD15I2WEBVYX2RZ7BNPTJHHA9P63F,A33VGSEJ44ORMF,352YTHGRO4E2Z7RDTAOEOZU1083H41,RT254,RT254,352YTHGRO4E2Z7RDTAOEOZU1083H41,352YTHGRO4E2Z7RDTAOEOZU1083H41,338054,338054,3,0.06,"""",null,null,"<div class = fixationbox><div class = fixation>+</div></div>","""","""","""","""","""","""","""","""","2021-12-31 03:30:30",73.144.104.225,"Mozilla/5.0 (Windows NT 10.0; Win64; x64) AppleWebKit/537.36 (KHTML, like Gecko) Chrome/96.0.4664.110 Safari/537.36",WebKit,Chrome,96.0.4664.110,Windows,10.0,ac0f2dffeffaa78d35a552e03d03f0a8
14,3,"""",test_procedure,stim_test,canvas-button-response,56,155600,0.0-11.0-0.0-1.5,3SD15I2WEBVYX2RZ7BNPTJHHA9P63F,A33VGSEJ44ORMF,352YTHGRO4E2Z7RDTAOEOZU1083H41,RT254,RT254,352YTHGRO4E2Z7RDTAOEOZU1083H41,352YTHGRO4E2Z7RDTAOEOZU1083H41,338054,338054,3,0.06,"""",1492.3999999985099,1,stim2,0,Counter-clockwise,false,"""",0.01,120,"""","""","2021-12-31 03:30:30",73.144.104.225,"Mozilla/5.0 (Windows NT 10.0; Win64; x64) AppleWebKit/537.36 (KHTML, like Gecko) Chrome/96.0.4664.110 Safari/537.36",WebKit,Chrome,96.0.4664.110,Windows,10.0,ac0f2dffeffaa78d35a552e03d03f0a8
14,3,"""",test_procedure,confidence_rating,html-slider-response,57,157815,0.0-11.0-0.0-2.5,3SD15I2WEBVYX2RZ7BNPTJHHA9P63F,A33VGSEJ44ORMF,352YTHGRO4E2Z7RDTAOEOZU1083H41,RT254,RT254,352YTHGRO4E2Z7RDTAOEOZU1083H41,352YTHGRO4E2Z7RDTAOEOZU1083H41,338054,338054,3,0.06,"""",2213.5999999996275,19,"<div id=""message-div""><p>How confident are you that your clockwise/counter-clockwise response just now was accurate? Please rate your confidence on the slider bar below.</p></div>","""","""","""",50,"""","""","""",19,"2021-12-31 03:30:30",73.144.104.225,"Mozilla/5.0 (Windows NT 10.0; Win64; x64) AppleWebKit/537.36 (KHTML, like Gecko) Chrome/96.0.4664.110 Safari/537.36",WebKit,Chrome,96.0.4664.110,Windows,10.0,ac0f2dffeffaa78d35a552e03d03f0a8
14,3,"""",test_procedure,fixation,html-keyboard-response,58,158319,0.0-11.0-0.0-0.6,3SD15I2WEBVYX2RZ7BNPTJHHA9P63F,A33VGSEJ44ORMF,352YTHGRO4E2Z7RDTAOEOZU1083H41,RT254,RT254,352YTHGRO4E2Z7RDTAOEOZU1083H41,352YTHGRO4E2Z7RDTAOEOZU1083H41,338054,338054,3,0.06,"""",null,null,"<div class = fixationbox><div class = fixation>+</div></div>","""","""","""","""","""","""","""","""","2021-12-31 03:30:30",73.144.104.225,"Mozilla/5.0 (Windows NT 10.0; Win64; x64) AppleWebKit/537.36 (KHTML, like Gecko) Chrome/96.0.4664.110 Safari/537.36",WebKit,Chrome,96.0.4664.110,Windows,10.0,ac0f2dffeffaa78d35a552e03d03f0a8
14,3,"""",test_procedure,stim_test,canvas-button-response,59,159974,0.0-11.0-0.0-1.6,3SD15I2WEBVYX2RZ7BNPTJHHA9P63F,A33VGSEJ44ORMF,352YTHGRO4E2Z7RDTAOEOZU1083H41,RT254,RT254,352YTHGRO4E2Z7RDTAOEOZU1083H41,352YTHGRO4E2Z7RDTAOEOZU1083H41,338054,338054,3,0.06,"""",1594.2999999988824,0,stim4,0,Counter-clockwise,true,"""",0.3,120,"""","""","2021-12-31 03:30:30",73.144.104.225,"Mozilla/5.0 (Windows NT 10.0; Win64; x64) AppleWebKit/537.36 (KHTML, like Gecko) Chrome/96.0.4664.110 Safari/537.36",WebKit,Chrome,96.0.4664.110,Windows,10.0,ac0f2dffeffaa78d35a552e03d03f0a8
14,3,"""",test_procedure,confidence_rating,html-slider-response,60,162387,0.0-11.0-0.0-2.6,3SD15I2WEBVYX2RZ7BNPTJHHA9P63F,A33VGSEJ44ORMF,352YTHGRO4E2Z7RDTAOEOZU1083H41,RT254,RT254,352YTHGRO4E2Z7RDTAOEOZU1083H41,352YTHGRO4E2Z7RDTAOEOZU1083H41,338054,338054,3,0.06,"""",2412.5,67,"<div id=""message-div""><p>How confident are you that your clockwise/counter-clockwise response just now was accurate? Please rate your confidence on the slider bar below.</p></div>","""","""","""",50,"""","""","""",67,"2021-12-31 03:30:30",73.144.104.225,"Mozilla/5.0 (Windows NT 10.0; Win64; x64) AppleWebKit/537.36 (KHTML, like Gecko) Chrome/96.0.4664.110 Safari/537.36",WebKit,Chrome,96.0.4664.110,Windows,10.0,ac0f2dffeffaa78d35a552e03d03f0a8
14,3,"""",test_procedure,fixation,html-keyboard-response,61,162888,0.0-11.0-0.0-0.7,3SD15I2WEBVYX2RZ7BNPTJHHA9P63F,A33VGSEJ44ORMF,352YTHGRO4E2Z7RDTAOEOZU1083H41,RT254,RT254,352YTHGRO4E2Z7RDTAOEOZU1083H41,352YTHGRO4E2Z7RDTAOEOZU1083H41,338054,338054,3,0.06,"""",null,null,"<div class = fixationbox><div class = fixation>+</div></div>","""","""","""","""","""","""","""","""","2021-12-31 03:30:30",73.144.104.225,"Mozilla/5.0 (Windows NT 10.0; Win64; x64) AppleWebKit/537.36 (KHTML, like Gecko) Chrome/96.0.4664.110 Safari/537.36",WebKit,Chrome,96.0.4664.110,Windows,10.0,ac0f2dffeffaa78d35a552e03d03f0a8
14,3,"""",test_procedure,stim_test,canvas-button-response,62,164795,0.0-11.0-0.0-1.7,3SD15I2WEBVYX2RZ7BNPTJHHA9P63F,A33VGSEJ44ORMF,352YTHGRO4E2Z7RDTAOEOZU1083H41,RT254,RT254,352YTHGRO4E2Z7RDTAOEOZU1083H41,352YTHGRO4E2Z7RDTAOEOZU1083H41,338054,338054,3,0.06,"""",1877.7000000011176,1,catchStim7,1,Clockwise,true,"""",0.3,60,0.001,"""","2021-12-31 03:30:30",73.144.104.225,"Mozilla/5.0 (Windows NT 10.0; Win64; x64) AppleWebKit/537.36 (KHTML, like Gecko) Chrome/96.0.4664.110 Safari/537.36",WebKit,Chrome,96.0.4664.110,Windows,10.0,ac0f2dffeffaa78d35a552e03d03f0a8
14,3,"""",test_procedure,confidence_rating,html-slider-response,63,167762,0.0-11.0-0.0-2.7,3SD15I2WEBVYX2RZ7BNPTJHHA9P63F,A33VGSEJ44ORMF,352YTHGRO4E2Z7RDTAOEOZU1083H41,RT254,RT254,352YTHGRO4E2Z7RDTAOEOZU1083H41,352YTHGRO4E2Z7RDTAOEOZU1083H41,338054,338054,3,0.06,"""",2964.800000000745,5,"<div id=""message-div""><p>How confident are you that your clockwise/counter-clockwise response just now was accurate? Please rate your confidence on the slider bar below.</p></div>","""","""","""",50,"""","""","""",5,"2021-12-31 03:30:30",73.144.104.225,"Mozilla/5.0 (Windows NT 10.0; Win64; x64) AppleWebKit/537.36 (KHTML, like Gecko) Chrome/96.0.4664.110 Safari/537.36",WebKit,Chrome,96.0.4664.110,Windows,10.0,ac0f2dffeffaa78d35a552e03d03f0a8
14,3,"""",test_procedure,fixation,html-keyboard-response,64,168265,0.0-11.0-0.0-0.8,3SD15I2WEBVYX2RZ7BNPTJHHA9P63F,A33VGSEJ44ORMF,352YTHGRO4E2Z7RDTAOEOZU1083H41,RT254,RT254,352YTHGRO4E2Z7RDTAOEOZU1083H41,352YTHGRO4E2Z7RDTAOEOZU1083H41,338054,338054,3,0.06,"""",null,null,"<div class = fixationbox><div class = fixation>+</div></div>","""","""","""","""","""","""","""","""","2021-12-31 03:30:30",73.144.104.225,"Mozilla/5.0 (Windows NT 10.0; Win64; x64) AppleWebKit/537.36 (KHTML, like Gecko) Chrome/96.0.4664.110 Safari/537.36",WebKit,Chrome,96.0.4664.110,Windows,10.0,ac0f2dffeffaa78d35a552e03d03f0a8
14,3,"""",test_procedure,stim_test,canvas-button-response,65,169642,0.0-11.0-0.0-1.8,3SD15I2WEBVYX2RZ7BNPTJHHA9P63F,A33VGSEJ44ORMF,352YTHGRO4E2Z7RDTAOEOZU1083H41,RT254,RT254,352YTHGRO4E2Z7RDTAOEOZU1083H41,352YTHGRO4E2Z7RDTAOEOZU1083H41,338054,338054,3,0.06,"""",1318.300000000745,1,catchStim5,1,Clockwise,true,"""",0.3,60,0.6,"""","2021-12-31 03:30:30",73.144.104.225,"Mozilla/5.0 (Windows NT 10.0; Win64; x64) AppleWebKit/537.36 (KHTML, like Gecko) Chrome/96.0.4664.110 Safari/537.36",WebKit,Chrome,96.0.4664.110,Windows,10.0,ac0f2dffeffaa78d35a552e03d03f0a8
14,3,"""",test_procedure,confidence_rating,html-slider-response,66,172016,0.0-11.0-0.0-2.8,3SD15I2WEBVYX2RZ7BNPTJHHA9P63F,A33VGSEJ44ORMF,352YTHGRO4E2Z7RDTAOEOZU1083H41,RT254,RT254,352YTHGRO4E2Z7RDTAOEOZU1083H41,352YTHGRO4E2Z7RDTAOEOZU1083H41,338054,338054,3,0.06,"""",2373.0999999996275,96,"<div id=""message-div""><p>How confident are you that your clockwise/counter-clockwise response just now was accurate? Please rate your confidence on the slider bar below.</p></div>","""","""","""",50,"""","""","""",96,"2021-12-31 03:30:30",73.144.104.225,"Mozilla/5.0 (Windows NT 10.0; Win64; x64) AppleWebKit/537.36 (KHTML, like Gecko) Chrome/96.0.4664.110 Safari/537.36",WebKit,Chrome,96.0.4664.110,Windows,10.0,ac0f2dffeffaa78d35a552e03d03f0a8
14,3,"""",test_procedure,fixation,html-keyboard-response,67,172520,0.0-11.0-0.0-0.9,3SD15I2WEBVYX2RZ7BNPTJHHA9P63F,A33VGSEJ44ORMF,352YTHGRO4E2Z7RDTAOEOZU1083H41,RT254,RT254,352YTHGRO4E2Z7RDTAOEOZU1083H41,352YTHGRO4E2Z7RDTAOEOZU1083H41,338054,338054,3,0.06,"""",null,null,"<div class = fixationbox><div class = fixation>+</div></div>","""","""","""","""","""","""","""","""","2021-12-31 03:30:30",73.144.104.225,"Mozilla/5.0 (Windows NT 10.0; Win64; x64) AppleWebKit/537.36 (KHTML, like Gecko) Chrome/96.0.4664.110 Safari/537.36",WebKit,Chrome,96.0.4664.110,Windows,10.0,ac0f2dffeffaa78d35a552e03d03f0a8
14,3,"""",test_procedure,stim_test,canvas-button-response,68,174143,0.0-11.0-0.0-1.9,3SD15I2WEBVYX2RZ7BNPTJHHA9P63F,A33VGSEJ44ORMF,352YTHGRO4E2Z7RDTAOEOZU1083H41,RT254,RT254,352YTHGRO4E2Z7RDTAOEOZU1083H41,352YTHGRO4E2Z7RDTAOEOZU1083H41,338054,338054,3,0.06,"""",1592,1,stim3,1,Clockwise,true,"""",0.3,60,"""","""","2021-12-31 03:30:30",73.144.104.225,"Mozilla/5.0 (Windows NT 10.0; Win64; x64) AppleWebKit/537.36 (KHTML, like Gecko) Chrome/96.0.4664.110 Safari/537.36",WebKit,Chrome,96.0.4664.110,Windows,10.0,ac0f2dffeffaa78d35a552e03d03f0a8
14,3,"""",test_procedure,confidence_rating,html-slider-response,69,176295,0.0-11.0-0.0-2.9,3SD15I2WEBVYX2RZ7BNPTJHHA9P63F,A33VGSEJ44ORMF,352YTHGRO4E2Z7RDTAOEOZU1083H41,RT254,RT254,352YTHGRO4E2Z7RDTAOEOZU1083H41,352YTHGRO4E2Z7RDTAOEOZU1083H41,338054,338054,3,0.06,"""",2150.5,76,"<div id=""message-div""><p>How confident are you that your clockwise/counter-clockwise response just now was accurate? Please rate your confidence on the slider bar below.</p></div>","""","""","""",50,"""","""","""",76,"2021-12-31 03:30:30",73.144.104.225,"Mozilla/5.0 (Windows NT 10.0; Win64; x64) AppleWebKit/537.36 (KHTML, like Gecko) Chrome/96.0.4664.110 Safari/537.36",WebKit,Chrome,96.0.4664.110,Windows,10.0,ac0f2dffeffaa78d35a552e03d03f0a8
14,3,"""",test_procedure,fixation,html-keyboard-response,70,176796,0.0-11.0-0.0-0.10,3SD15I2WEBVYX2RZ7BNPTJHHA9P63F,A33VGSEJ44ORMF,352YTHGRO4E2Z7RDTAOEOZU1083H41,RT254,RT254,352YTHGRO4E2Z7RDTAOEOZU1083H41,352YTHGRO4E2Z7RDTAOEOZU1083H41,338054,338054,3,0.06,"""",null,null,"<div class = fixationbox><div class = fixation>+</div></div>","""","""","""","""","""","""","""","""","2021-12-31 03:30:30",73.144.104.225,"Mozilla/5.0 (Windows NT 10.0; Win64; x64) AppleWebKit/537.36 (KHTML, like Gecko) Chrome/96.0.4664.110 Safari/537.36",WebKit,Chrome,96.0.4664.110,Windows,10.0,ac0f2dffeffaa78d35a552e03d03f0a8
14,3,"""",test_procedure,stim_test,canvas-button-response,71,178333,0.0-11.0-0.0-1.10,3SD15I2WEBVYX2RZ7BNPTJHHA9P63F,A33VGSEJ44ORMF,352YTHGRO4E2Z7RDTAOEOZU1083H41,RT254,RT254,352YTHGRO4E2Z7RDTAOEOZU1083H41,352YTHGRO4E2Z7RDTAOEOZU1083H41,338054,338054,3,0.06,"""",1490.300000000745,1,stim1,1,Clockwise,true,"""",0.01,60,"""","""","2021-12-31 03:30:30",73.144.104.225,"Mozilla/5.0 (Windows NT 10.0; Win64; x64) AppleWebKit/537.36 (KHTML, like Gecko) Chrome/96.0.4664.110 Safari/537.36",WebKit,Chrome,96.0.4664.110,Windows,10.0,ac0f2dffeffaa78d35a552e03d03f0a8
14,3,"""",test_procedure,confidence_rating,html-slider-response,72,180612,0.0-11.0-0.0-2.10,3SD15I2WEBVYX2RZ7BNPTJHHA9P63F,A33VGSEJ44ORMF,352YTHGRO4E2Z7RDTAOEOZU1083H41,RT254,RT254,352YTHGRO4E2Z7RDTAOEOZU1083H41,352YTHGRO4E2Z7RDTAOEOZU1083H41,338054,338054,3,0.06,"""",2276.5,21,"<div id=""message-div""><p>How confident are you that your clockwise/counter-clockwise response just now was accurate? Please rate your confidence on the slider bar below.</p></div>","""","""","""",50,"""","""","""",21,"2021-12-31 03:30:30",73.144.104.225,"Mozilla/5.0 (Windows NT 10.0; Win64; x64) AppleWebKit/537.36 (KHTML, like Gecko) Chrome/96.0.4664.110 Safari/537.36",WebKit,Chrome,96.0.4664.110,Windows,10.0,ac0f2dffeffaa78d35a552e03d03f0a8
14,3,"""",test_procedure,fixation,html-keyboard-response,73,181114,0.0-11.0-0.0-0.11,3SD15I2WEBVYX2RZ7BNPTJHHA9P63F,A33VGSEJ44ORMF,352YTHGRO4E2Z7RDTAOEOZU1083H41,RT254,RT254,352YTHGRO4E2Z7RDTAOEOZU1083H41,352YTHGRO4E2Z7RDTAOEOZU1083H41,338054,338054,3,0.06,"""",null,null,"<div class = fixationbox><div class = fixation>+</div></div>","""","""","""","""","""","""","""","""","2021-12-31 03:30:30",73.144.104.225,"Mozilla/5.0 (Windows NT 10.0; Win64; x64) AppleWebKit/537.36 (KHTML, like Gecko) Chrome/96.0.4664.110 Safari/537.36",WebKit,Chrome,96.0.4664.110,Windows,10.0,ac0f2dffeffaa78d35a552e03d03f0a8
14,3,"""",test_procedure,stim_test,canvas-button-response,74,182452,0.0-11.0-0.0-1.11,3SD15I2WEBVYX2RZ7BNPTJHHA9P63F,A33VGSEJ44ORMF,352YTHGRO4E2Z7RDTAOEOZU1083H41,RT254,RT254,352YTHGRO4E2Z7RDTAOEOZU1083H41,352YTHGRO4E2Z7RDTAOEOZU1083H41,338054,338054,3,0.06,"""",1306.5,0,catchStim6,0,Counter-clockwise,true,"""",0.3,120,0.6,"""","2021-12-31 03:30:30",73.144.104.225,"Mozilla/5.0 (Windows NT 10.0; Win64; x64) AppleWebKit/537.36 (KHTML, like Gecko) Chrome/96.0.4664.110 Safari/537.36",WebKit,Chrome,96.0.4664.110,Windows,10.0,ac0f2dffeffaa78d35a552e03d03f0a8
14,3,"""",test_procedure,confidence_rating,html-slider-response,75,207705,0.0-11.0-0.0-2.11,3SD15I2WEBVYX2RZ7BNPTJHHA9P63F,A33VGSEJ44ORMF,352YTHGRO4E2Z7RDTAOEOZU1083H41,RT254,RT254,352YTHGRO4E2Z7RDTAOEOZU1083H41,352YTHGRO4E2Z7RDTAOEOZU1083H41,338054,338054,3,0.06,"""",25252.099999999627,91,"<div id=""message-div""><p>How confident are you that your clockwise/counter-clockwise response just now was accurate? Please rate your confidence on the slider bar below.</p></div>","""","""","""",50,"""","""","""",91,"2021-12-31 03:30:30",73.144.104.225,"Mozilla/5.0 (Windows NT 10.0; Win64; x64) AppleWebKit/537.36 (KHTML, like Gecko) Chrome/96.0.4664.110 Safari/537.36",WebKit,Chrome,96.0.4664.110,Windows,10.0,ac0f2dffeffaa78d35a552e03d03f0a8
14,3,"""",test_procedure,fixation,html-keyboard-response,76,208210,0.0-11.0-0.0-0.12,3SD15I2WEBVYX2RZ7BNPTJHHA9P63F,A33VGSEJ44ORMF,352YTHGRO4E2Z7RDTAOEOZU1083H41,RT254,RT254,352YTHGRO4E2Z7RDTAOEOZU1083H41,352YTHGRO4E2Z7RDTAOEOZU1083H41,338054,338054,3,0.06,"""",null,null,"<div class = fixationbox><div class = fixation>+</div></div>","""","""","""","""","""","""","""","""","2021-12-31 03:30:30",73.144.104.225,"Mozilla/5.0 (Windows NT 10.0; Win64; x64) AppleWebKit/537.36 (KHTML, like Gecko) Chrome/96.0.4664.110 Safari/537.36",WebKit,Chrome,96.0.4664.110,Windows,10.0,ac0f2dffeffaa78d35a552e03d03f0a8
14,3,"""",test_procedure,stim_test,canvas-button-response,77,209807,0.0-11.0-0.0-1.12,3SD15I2WEBVYX2RZ7BNPTJHHA9P63F,A33VGSEJ44ORMF,352YTHGRO4E2Z7RDTAOEOZU1083H41,RT254,RT254,352YTHGRO4E2Z7RDTAOEOZU1083H41,352YTHGRO4E2Z7RDTAOEOZU1083H41,338054,338054,3,0.06,"""",1556.5999999996275,0,stim2,0,Counter-clockwise,true,"""",0.01,120,"""","""","2021-12-31 03:30:30",73.144.104.225,"Mozilla/5.0 (Windows NT 10.0; Win64; x64) AppleWebKit/537.36 (KHTML, like Gecko) Chrome/96.0.4664.110 Safari/537.36",WebKit,Chrome,96.0.4664.110,Windows,10.0,ac0f2dffeffaa78d35a552e03d03f0a8
14,3,"""",test_procedure,confidence_rating,html-slider-response,78,211886,0.0-11.0-0.0-2.12,3SD15I2WEBVYX2RZ7BNPTJHHA9P63F,A33VGSEJ44ORMF,352YTHGRO4E2Z7RDTAOEOZU1083H41,RT254,RT254,352YTHGRO4E2Z7RDTAOEOZU1083H41,352YTHGRO4E2Z7RDTAOEOZU1083H41,338054,338054,3,0.06,"""",2078.199999999255,66,"<div id=""message-div""><p>How confident are you that your clockwise/counter-clockwise response just now was accurate? Please rate your confidence on the slider bar below.</p></div>","""","""","""",50,"""","""","""",66,"2021-12-31 03:30:30",73.144.104.225,"Mozilla/5.0 (Windows NT 10.0; Win64; x64) AppleWebKit/537.36 (KHTML, like Gecko) Chrome/96.0.4664.110 Safari/537.36",WebKit,Chrome,96.0.4664.110,Windows,10.0,ac0f2dffeffaa78d35a552e03d03f0a8
14,3,"""",test_procedure,fixation,html-keyboard-response,79,212388,0.0-11.0-0.0-0.13,3SD15I2WEBVYX2RZ7BNPTJHHA9P63F,A33VGSEJ44ORMF,352YTHGRO4E2Z7RDTAOEOZU1083H41,RT254,RT254,352YTHGRO4E2Z7RDTAOEOZU1083H41,352YTHGRO4E2Z7RDTAOEOZU1083H41,338054,338054,3,0.06,"""",null,null,"<div class = fixationbox><div class = fixation>+</div></div>","""","""","""","""","""","""","""","""","2021-12-31 03:30:30",73.144.104.225,"Mozilla/5.0 (Windows NT 10.0; Win64; x64) AppleWebKit/537.36 (KHTML, like Gecko) Chrome/96.0.4664.110 Safari/537.36",WebKit,Chrome,96.0.4664.110,Windows,10.0,ac0f2dffeffaa78d35a552e03d03f0a8
14,3,"""",test_procedure,stim_test,canvas-button-response,80,213924,0.0-11.0-0.0-1.13,3SD15I2WEBVYX2RZ7BNPTJHHA9P63F,A33VGSEJ44ORMF,352YTHGRO4E2Z7RDTAOEOZU1083H41,RT254,RT254,352YTHGRO4E2Z7RDTAOEOZU1083H41,352YTHGRO4E2Z7RDTAOEOZU1083H41,338054,338054,3,0.06,"""",1478.699999999255,0,catchStim4,0,Counter-clockwise,true,"""",0.01,120,0.001,"""","2021-12-31 03:30:30",73.144.104.225,"Mozilla/5.0 (Windows NT 10.0; Win64; x64) AppleWebKit/537.36 (KHTML, like Gecko) Chrome/96.0.4664.110 Safari/537.36",WebKit,Chrome,96.0.4664.110,Windows,10.0,ac0f2dffeffaa78d35a552e03d03f0a8
14,3,"""",test_procedure,confidence_rating,html-slider-response,81,215844,0.0-11.0-0.0-2.13,3SD15I2WEBVYX2RZ7BNPTJHHA9P63F,A33VGSEJ44ORMF,352YTHGRO4E2Z7RDTAOEOZU1083H41,RT254,RT254,352YTHGRO4E2Z7RDTAOEOZU1083H41,352YTHGRO4E2Z7RDTAOEOZU1083H41,338054,338054,3,0.06,"""",1917.300000000745,48,"<div id=""message-div""><p>How confident are you that your clockwise/counter-clockwise response just now was accurate? Please rate your confidence on the slider bar below.</p></div>","""","""","""",50,"""","""","""",48,"2021-12-31 03:30:30",73.144.104.225,"Mozilla/5.0 (Windows NT 10.0; Win64; x64) AppleWebKit/537.36 (KHTML, like Gecko) Chrome/96.0.4664.110 Safari/537.36",WebKit,Chrome,96.0.4664.110,Windows,10.0,ac0f2dffeffaa78d35a552e03d03f0a8
14,3,"""",test_procedure,fixation,html-keyboard-response,82,216346,0.0-11.0-0.0-0.14,3SD15I2WEBVYX2RZ7BNPTJHHA9P63F,A33VGSEJ44ORMF,352YTHGRO4E2Z7RDTAOEOZU1083H41,RT254,RT254,352YTHGRO4E2Z7RDTAOEOZU1083H41,352YTHGRO4E2Z7RDTAOEOZU1083H41,338054,338054,3,0.06,"""",null,null,"<div class = fixationbox><div class = fixation>+</div></div>","""","""","""","""","""","""","""","""","2021-12-31 03:30:30",73.144.104.225,"Mozilla/5.0 (Windows NT 10.0; Win64; x64) AppleWebKit/537.36 (KHTML, like Gecko) Chrome/96.0.4664.110 Safari/537.36",WebKit,Chrome,96.0.4664.110,Windows,10.0,ac0f2dffeffaa78d35a552e03d03f0a8
14,3,"""",test_procedure,stim_test,canvas-button-response,83,218116,0.0-11.0-0.0-1.14,3SD15I2WEBVYX2RZ7BNPTJHHA9P63F,A33VGSEJ44ORMF,352YTHGRO4E2Z7RDTAOEOZU1083H41,RT254,RT254,352YTHGRO4E2Z7RDTAOEOZU1083H41,352YTHGRO4E2Z7RDTAOEOZU1083H41,338054,338054,3,0.06,"""",1728.699999999255,1,stim3,1,Clockwise,true,"""",0.3,60,"""","""","2021-12-31 03:30:30",73.144.104.225,"Mozilla/5.0 (Windows NT 10.0; Win64; x64) AppleWebKit/537.36 (KHTML, like Gecko) Chrome/96.0.4664.110 Safari/537.36",WebKit,Chrome,96.0.4664.110,Windows,10.0,ac0f2dffeffaa78d35a552e03d03f0a8
14,3,"""",test_procedure,confidence_rating,html-slider-response,84,258578,0.0-11.0-0.0-2.14,3SD15I2WEBVYX2RZ7BNPTJHHA9P63F,A33VGSEJ44ORMF,352YTHGRO4E2Z7RDTAOEOZU1083H41,RT254,RT254,352YTHGRO4E2Z7RDTAOEOZU1083H41,352YTHGRO4E2Z7RDTAOEOZU1083H41,338054,338054,3,0.06,"""",40460.699999999255,16,"<div id=""message-div""><p>How confident are you that your clockwise/counter-clockwise response just now was accurate? Please rate your confidence on the slider bar below.</p></div>","""","""","""",50,"""","""","""",16,"2021-12-31 03:30:30",73.144.104.225,"Mozilla/5.0 (Windows NT 10.0; Win64; x64) AppleWebKit/537.36 (KHTML, like Gecko) Chrome/96.0.4664.110 Safari/537.36",WebKit,Chrome,96.0.4664.110,Windows,10.0,ac0f2dffeffaa78d35a552e03d03f0a8
14,3,"""",test_procedure,fixation,html-keyboard-response,85,259082,0.0-11.0-0.0-0.15,3SD15I2WEBVYX2RZ7BNPTJHHA9P63F,A33VGSEJ44ORMF,352YTHGRO4E2Z7RDTAOEOZU1083H41,RT254,RT254,352YTHGRO4E2Z7RDTAOEOZU1083H41,352YTHGRO4E2Z7RDTAOEOZU1083H41,338054,338054,3,0.06,"""",null,null,"<div class = fixationbox><div class = fixation>+</div></div>","""","""","""","""","""","""","""","""","2021-12-31 03:30:30",73.144.104.225,"Mozilla/5.0 (Windows NT 10.0; Win64; x64) AppleWebKit/537.36 (KHTML, like Gecko) Chrome/96.0.4664.110 Safari/537.36",WebKit,Chrome,96.0.4664.110,Windows,10.0,ac0f2dffeffaa78d35a552e03d03f0a8
14,3,"""",test_procedure,stim_test,canvas-button-response,86,261575,0.0-11.0-0.0-1.15,3SD15I2WEBVYX2RZ7BNPTJHHA9P63F,A33VGSEJ44ORMF,352YTHGRO4E2Z7RDTAOEOZU1083H41,RT254,RT254,352YTHGRO4E2Z7RDTAOEOZU1083H41,352YTHGRO4E2Z7RDTAOEOZU1083H41,338054,338054,3,0.06,"""",2444.4000000003725,1,catchStim8,0,Counter-clockwise,false,"""",0.3,120,0.001,"""","2021-12-31 03:30:30",73.144.104.225,"Mozilla/5.0 (Windows NT 10.0; Win64; x64) AppleWebKit/537.36 (KHTML, like Gecko) Chrome/96.0.4664.110 Safari/537.36",WebKit,Chrome,96.0.4664.110,Windows,10.0,ac0f2dffeffaa78d35a552e03d03f0a8
14,3,"""",test_procedure,confidence_rating,html-slider-response,87,287250,0.0-11.0-0.0-2.15,3SD15I2WEBVYX2RZ7BNPTJHHA9P63F,A33VGSEJ44ORMF,352YTHGRO4E2Z7RDTAOEOZU1083H41,RT254,RT254,352YTHGRO4E2Z7RDTAOEOZU1083H41,352YTHGRO4E2Z7RDTAOEOZU1083H41,338054,338054,3,0.06,"""",25674.599999999627,2,"<div id=""message-div""><p>How confident are you that your clockwise/counter-clockwise response just now was accurate? Please rate your confidence on the slider bar below.</p></div>","""","""","""",50,"""","""","""",2,"2021-12-31 03:30:30",73.144.104.225,"Mozilla/5.0 (Windows NT 10.0; Win64; x64) AppleWebKit/537.36 (KHTML, like Gecko) Chrome/96.0.4664.110 Safari/537.36",WebKit,Chrome,96.0.4664.110,Windows,10.0,ac0f2dffeffaa78d35a552e03d03f0a8
14,3,"""",test_procedure,fixation,html-keyboard-response,88,287754,0.0-11.0-0.0-0.16,3SD15I2WEBVYX2RZ7BNPTJHHA9P63F,A33VGSEJ44ORMF,352YTHGRO4E2Z7RDTAOEOZU1083H41,RT254,RT254,352YTHGRO4E2Z7RDTAOEOZU1083H41,352YTHGRO4E2Z7RDTAOEOZU1083H41,338054,338054,3,0.06,"""",null,null,"<div class = fixationbox><div class = fixation>+</div></div>","""","""","""","""","""","""","""","""","2021-12-31 03:30:30",73.144.104.225,"Mozilla/5.0 (Windows NT 10.0; Win64; x64) AppleWebKit/537.36 (KHTML, like Gecko) Chrome/96.0.4664.110 Safari/537.36",WebKit,Chrome,96.0.4664.110,Windows,10.0,ac0f2dffeffaa78d35a552e03d03f0a8
14,3,"""",test_procedure,stim_test,canvas-button-response,89,290106,0.0-11.0-0.0-1.16,3SD15I2WEBVYX2RZ7BNPTJHHA9P63F,A33VGSEJ44ORMF,352YTHGRO4E2Z7RDTAOEOZU1083H41,RT254,RT254,352YTHGRO4E2Z7RDTAOEOZU1083H41,352YTHGRO4E2Z7RDTAOEOZU1083H41,338054,338054,3,0.06,"""",2264.2000000011176,1,stim2,0,Counter-clockwise,false,"""",0.01,120,"""","""","2021-12-31 03:30:30",73.144.104.225,"Mozilla/5.0 (Windows NT 10.0; Win64; x64) AppleWebKit/537.36 (KHTML, like Gecko) Chrome/96.0.4664.110 Safari/537.36",WebKit,Chrome,96.0.4664.110,Windows,10.0,ac0f2dffeffaa78d35a552e03d03f0a8
14,3,"""",test_procedure,confidence_rating,html-slider-response,90,294848,0.0-11.0-0.0-2.16,3SD15I2WEBVYX2RZ7BNPTJHHA9P63F,A33VGSEJ44ORMF,352YTHGRO4E2Z7RDTAOEOZU1083H41,RT254,RT254,352YTHGRO4E2Z7RDTAOEOZU1083H41,352YTHGRO4E2Z7RDTAOEOZU1083H41,338054,338054,3,0.06,"""",4741.199999999255,6,"<div id=""message-div""><p>How confident are you that your clockwise/counter-clockwise response just now was accurate? Please rate your confidence on the slider bar below.</p></div>","""","""","""",50,"""","""","""",6,"2021-12-31 03:30:30",73.144.104.225,"Mozilla/5.0 (Windows NT 10.0; Win64; x64) AppleWebKit/537.36 (KHTML, like Gecko) Chrome/96.0.4664.110 Safari/537.36",WebKit,Chrome,96.0.4664.110,Windows,10.0,ac0f2dffeffaa78d35a552e03d03f0a8
14,3,"""",test_procedure,fixation,html-keyboard-response,91,295352,0.0-11.0-0.0-0.17,3SD15I2WEBVYX2RZ7BNPTJHHA9P63F,A33VGSEJ44ORMF,352YTHGRO4E2Z7RDTAOEOZU1083H41,RT254,RT254,352YTHGRO4E2Z7RDTAOEOZU1083H41,352YTHGRO4E2Z7RDTAOEOZU1083H41,338054,338054,3,0.06,"""",null,null,"<div class = fixationbox><div class = fixation>+</div></div>","""","""","""","""","""","""","""","""","2021-12-31 03:30:30",73.144.104.225,"Mozilla/5.0 (Windows NT 10.0; Win64; x64) AppleWebKit/537.36 (KHTML, like Gecko) Chrome/96.0.4664.110 Safari/537.36",WebKit,Chrome,96.0.4664.110,Windows,10.0,ac0f2dffeffaa78d35a552e03d03f0a8
14,3,"""",test_procedure,stim_test,canvas-button-response,92,296712,0.0-11.0-0.0-1.17,3SD15I2WEBVYX2RZ7BNPTJHHA9P63F,A33VGSEJ44ORMF,352YTHGRO4E2Z7RDTAOEOZU1083H41,RT254,RT254,352YTHGRO4E2Z7RDTAOEOZU1083H41,352YTHGRO4E2Z7RDTAOEOZU1083H41,338054,338054,3,0.06,"""",1318.699999999255,1,stim2,0,Counter-clockwise,false,"""",0.01,120,"""","""","2021-12-31 03:30:30",73.144.104.225,"Mozilla/5.0 (Windows NT 10.0; Win64; x64) AppleWebKit/537.36 (KHTML, like Gecko) Chrome/96.0.4664.110 Safari/537.36",WebKit,Chrome,96.0.4664.110,Windows,10.0,ac0f2dffeffaa78d35a552e03d03f0a8
14,3,"""",test_procedure,confidence_rating,html-slider-response,93,299047,0.0-11.0-0.0-2.17,3SD15I2WEBVYX2RZ7BNPTJHHA9P63F,A33VGSEJ44ORMF,352YTHGRO4E2Z7RDTAOEOZU1083H41,RT254,RT254,352YTHGRO4E2Z7RDTAOEOZU1083H41,352YTHGRO4E2Z7RDTAOEOZU1083H41,338054,338054,3,0.06,"""",2333.5,54,"<div id=""message-div""><p>How confident are you that your clockwise/counter-clockwise response just now was accurate? Please rate your confidence on the slider bar below.</p></div>","""","""","""",50,"""","""","""",54,"2021-12-31 03:30:30",73.144.104.225,"Mozilla/5.0 (Windows NT 10.0; Win64; x64) AppleWebKit/537.36 (KHTML, like Gecko) Chrome/96.0.4664.110 Safari/537.36",WebKit,Chrome,96.0.4664.110,Windows,10.0,ac0f2dffeffaa78d35a552e03d03f0a8
14,3,"""",test_procedure,fixation,html-keyboard-response,94,299549,0.0-11.0-0.0-0.18,3SD15I2WEBVYX2RZ7BNPTJHHA9P63F,A33VGSEJ44ORMF,352YTHGRO4E2Z7RDTAOEOZU1083H41,RT254,RT254,352YTHGRO4E2Z7RDTAOEOZU1083H41,352YTHGRO4E2Z7RDTAOEOZU1083H41,338054,338054,3,0.06,"""",null,null,"<div class = fixationbox><div class = fixation>+</div></div>","""","""","""","""","""","""","""","""","2021-12-31 03:30:30",73.144.104.225,"Mozilla/5.0 (Windows NT 10.0; Win64; x64) AppleWebKit/537.36 (KHTML, like Gecko) Chrome/96.0.4664.110 Safari/537.36",WebKit,Chrome,96.0.4664.110,Windows,10.0,ac0f2dffeffaa78d35a552e03d03f0a8
14,3,"""",test_procedure,stim_test,canvas-button-response,95,301365,0.0-11.0-0.0-1.18,3SD15I2WEBVYX2RZ7BNPTJHHA9P63F,A33VGSEJ44ORMF,352YTHGRO4E2Z7RDTAOEOZU1083H41,RT254,RT254,352YTHGRO4E2Z7RDTAOEOZU1083H41,352YTHGRO4E2Z7RDTAOEOZU1083H41,338054,338054,3,0.06,"""",1766.4000000003725,1,stim1,1,Clockwise,true,"""",0.01,60,"""","""","2021-12-31 03:30:30",73.144.104.225,"Mozilla/5.0 (Windows NT 10.0; Win64; x64) AppleWebKit/537.36 (KHTML, like Gecko) Chrome/96.0.4664.110 Safari/537.36",WebKit,Chrome,96.0.4664.110,Windows,10.0,ac0f2dffeffaa78d35a552e03d03f0a8
14,3,"""",test_procedure,confidence_rating,html-slider-response,96,303532,0.0-11.0-0.0-2.18,3SD15I2WEBVYX2RZ7BNPTJHHA9P63F,A33VGSEJ44ORMF,352YTHGRO4E2Z7RDTAOEOZU1083H41,RT254,RT254,352YTHGRO4E2Z7RDTAOEOZU1083H41,352YTHGRO4E2Z7RDTAOEOZU1083H41,338054,338054,3,0.06,"""",2163.4000000003725,76,"<div id=""message-div""><p>How confident are you that your clockwise/counter-clockwise response just now was accurate? Please rate your confidence on the slider bar below.</p></div>","""","""","""",50,"""","""","""",76,"2021-12-31 03:30:30",73.144.104.225,"Mozilla/5.0 (Windows NT 10.0; Win64; x64) AppleWebKit/537.36 (KHTML, like Gecko) Chrome/96.0.4664.110 Safari/537.36",WebKit,Chrome,96.0.4664.110,Windows,10.0,ac0f2dffeffaa78d35a552e03d03f0a8
14,3,"""",test_procedure,fixation,html-keyboard-response,97,304033,0.0-11.0-0.0-0.19,3SD15I2WEBVYX2RZ7BNPTJHHA9P63F,A33VGSEJ44ORMF,352YTHGRO4E2Z7RDTAOEOZU1083H41,RT254,RT254,352YTHGRO4E2Z7RDTAOEOZU1083H41,352YTHGRO4E2Z7RDTAOEOZU1083H41,338054,338054,3,0.06,"""",null,null,"<div class = fixationbox><div class = fixation>+</div></div>","""","""","""","""","""","""","""","""","2021-12-31 03:30:30",73.144.104.225,"Mozilla/5.0 (Windows NT 10.0; Win64; x64) AppleWebKit/537.36 (KHTML, like Gecko) Chrome/96.0.4664.110 Safari/537.36",WebKit,Chrome,96.0.4664.110,Windows,10.0,ac0f2dffeffaa78d35a552e03d03f0a8
14,3,"""",test_procedure,stim_test,canvas-button-response,98,305503,0.0-11.0-0.0-1.19,3SD15I2WEBVYX2RZ7BNPTJHHA9P63F,A33VGSEJ44ORMF,352YTHGRO4E2Z7RDTAOEOZU1083H41,RT254,RT254,352YTHGRO4E2Z7RDTAOEOZU1083H41,352YTHGRO4E2Z7RDTAOEOZU1083H41,338054,338054,3,0.06,"""",1440.5,1,stim3,1,Clockwise,true,"""",0.3,60,"""","""","2021-12-31 03:30:30",73.144.104.225,"Mozilla/5.0 (Windows NT 10.0; Win64; x64) AppleWebKit/537.36 (KHTML, like Gecko) Chrome/96.0.4664.110 Safari/537.36",WebKit,Chrome,96.0.4664.110,Windows,10.0,ac0f2dffeffaa78d35a552e03d03f0a8
14,3,"""",test_procedure,confidence_rating,html-slider-response,99,308006,0.0-11.0-0.0-2.19,3SD15I2WEBVYX2RZ7BNPTJHHA9P63F,A33VGSEJ44ORMF,352YTHGRO4E2Z7RDTAOEOZU1083H41,RT254,RT254,352YTHGRO4E2Z7RDTAOEOZU1083H41,352YTHGRO4E2Z7RDTAOEOZU1083H41,338054,338054,3,0.06,"""",2501.89999999851,81,"<div id=""message-div""><p>How confident are you that your clockwise/counter-clockwise response just now was accurate? Please rate your confidence on the slider bar below.</p></div>","""","""","""",50,"""","""","""",81,"2021-12-31 03:30:30",73.144.104.225,"Mozilla/5.0 (Windows NT 10.0; Win64; x64) AppleWebKit/537.36 (KHTML, like Gecko) Chrome/96.0.4664.110 Safari/537.36",WebKit,Chrome,96.0.4664.110,Windows,10.0,ac0f2dffeffaa78d35a552e03d03f0a8
14,3,"""",test_procedure,fixation,html-keyboard-response,100,308510,0.0-11.0-0.0-0.20,3SD15I2WEBVYX2RZ7BNPTJHHA9P63F,A33VGSEJ44ORMF,352YTHGRO4E2Z7RDTAOEOZU1083H41,RT254,RT254,352YTHGRO4E2Z7RDTAOEOZU1083H41,352YTHGRO4E2Z7RDTAOEOZU1083H41,338054,338054,3,0.06,"""",null,null,"<div class = fixationbox><div class = fixation>+</div></div>","""","""","""","""","""","""","""","""","2021-12-31 03:30:30",73.144.104.225,"Mozilla/5.0 (Windows NT 10.0; Win64; x64) AppleWebKit/537.36 (KHTML, like Gecko) Chrome/96.0.4664.110 Safari/537.36",WebKit,Chrome,96.0.4664.110,Windows,10.0,ac0f2dffeffaa78d35a552e03d03f0a8
14,3,"""",test_procedure,stim_test,canvas-button-response,101,309945,0.0-11.0-0.0-1.20,3SD15I2WEBVYX2RZ7BNPTJHHA9P63F,A33VGSEJ44ORMF,352YTHGRO4E2Z7RDTAOEOZU1083H41,RT254,RT254,352YTHGRO4E2Z7RDTAOEOZU1083H41,352YTHGRO4E2Z7RDTAOEOZU1083H41,338054,338054,3,0.06,"""",1395.6000000014901,1,stim4,0,Counter-clockwise,false,"""",0.3,120,"""","""","2021-12-31 03:30:30",73.144.104.225,"Mozilla/5.0 (Windows NT 10.0; Win64; x64) AppleWebKit/537.36 (KHTML, like Gecko) Chrome/96.0.4664.110 Safari/537.36",WebKit,Chrome,96.0.4664.110,Windows,10.0,ac0f2dffeffaa78d35a552e03d03f0a8
14,3,"""",test_procedure,confidence_rating,html-slider-response,102,312241,0.0-11.0-0.0-2.20,3SD15I2WEBVYX2RZ7BNPTJHHA9P63F,A33VGSEJ44ORMF,352YTHGRO4E2Z7RDTAOEOZU1083H41,RT254,RT254,352YTHGRO4E2Z7RDTAOEOZU1083H41,352YTHGRO4E2Z7RDTAOEOZU1083H41,338054,338054,3,0.06,"""",2294.800000000745,44,"<div id=""message-div""><p>How confident are you that your clockwise/counter-clockwise response just now was accurate? Please rate your confidence on the slider bar below.</p></div>","""","""","""",50,"""","""","""",44,"2021-12-31 03:30:30",73.144.104.225,"Mozilla/5.0 (Windows NT 10.0; Win64; x64) AppleWebKit/537.36 (KHTML, like Gecko) Chrome/96.0.4664.110 Safari/537.36",WebKit,Chrome,96.0.4664.110,Windows,10.0,ac0f2dffeffaa78d35a552e03d03f0a8
14,3,"""",test_procedure,fixation,html-keyboard-response,103,312743,0.0-11.0-0.0-0.21,3SD15I2WEBVYX2RZ7BNPTJHHA9P63F,A33VGSEJ44ORMF,352YTHGRO4E2Z7RDTAOEOZU1083H41,RT254,RT254,352YTHGRO4E2Z7RDTAOEOZU1083H41,352YTHGRO4E2Z7RDTAOEOZU1083H41,338054,338054,3,0.06,"""",null,null,"<div class = fixationbox><div class = fixation>+</div></div>","""","""","""","""","""","""","""","""","2021-12-31 03:30:30",73.144.104.225,"Mozilla/5.0 (Windows NT 10.0; Win64; x64) AppleWebKit/537.36 (KHTML, like Gecko) Chrome/96.0.4664.110 Safari/537.36",WebKit,Chrome,96.0.4664.110,Windows,10.0,ac0f2dffeffaa78d35a552e03d03f0a8
14,3,"""",test_procedure,stim_test,canvas-button-response,104,313903,0.0-11.0-0.0-1.21,3SD15I2WEBVYX2RZ7BNPTJHHA9P63F,A33VGSEJ44ORMF,352YTHGRO4E2Z7RDTAOEOZU1083H41,RT254,RT254,352YTHGRO4E2Z7RDTAOEOZU1083H41,352YTHGRO4E2Z7RDTAOEOZU1083H41,338054,338054,3,0.06,"""",1131.300000000745,1,catchStim1,1,Clockwise,true,"""",0.01,60,0.6,"""","2021-12-31 03:30:30",73.144.104.225,"Mozilla/5.0 (Windows NT 10.0; Win64; x64) AppleWebKit/537.36 (KHTML, like Gecko) Chrome/96.0.4664.110 Safari/537.36",WebKit,Chrome,96.0.4664.110,Windows,10.0,ac0f2dffeffaa78d35a552e03d03f0a8
14,3,"""",test_procedure,confidence_rating,html-slider-response,105,322291,0.0-11.0-0.0-2.21,3SD15I2WEBVYX2RZ7BNPTJHHA9P63F,A33VGSEJ44ORMF,352YTHGRO4E2Z7RDTAOEOZU1083H41,RT254,RT254,352YTHGRO4E2Z7RDTAOEOZU1083H41,352YTHGRO4E2Z7RDTAOEOZU1083H41,338054,338054,3,0.06,"""",8386.599999999627,98,"<div id=""message-div""><p>How confident are you that your clockwise/counter-clockwise response just now was accurate? Please rate your confidence on the slider bar below.</p></div>","""","""","""",50,"""","""","""",98,"2021-12-31 03:30:30",73.144.104.225,"Mozilla/5.0 (Windows NT 10.0; Win64; x64) AppleWebKit/537.36 (KHTML, like Gecko) Chrome/96.0.4664.110 Safari/537.36",WebKit,Chrome,96.0.4664.110,Windows,10.0,ac0f2dffeffaa78d35a552e03d03f0a8
14,3,"""",test_procedure,fixation,html-keyboard-response,106,322795,0.0-11.0-0.0-0.22,3SD15I2WEBVYX2RZ7BNPTJHHA9P63F,A33VGSEJ44ORMF,352YTHGRO4E2Z7RDTAOEOZU1083H41,RT254,RT254,352YTHGRO4E2Z7RDTAOEOZU1083H41,352YTHGRO4E2Z7RDTAOEOZU1083H41,338054,338054,3,0.06,"""",null,null,"<div class = fixationbox><div class = fixation>+</div></div>","""","""","""","""","""","""","""","""","2021-12-31 03:30:30",73.144.104.225,"Mozilla/5.0 (Windows NT 10.0; Win64; x64) AppleWebKit/537.36 (KHTML, like Gecko) Chrome/96.0.4664.110 Safari/537.36",WebKit,Chrome,96.0.4664.110,Windows,10.0,ac0f2dffeffaa78d35a552e03d03f0a8
14,3,"""",test_procedure,stim_test,canvas-button-response,107,324155,0.0-11.0-0.0-1.22,3SD15I2WEBVYX2RZ7BNPTJHHA9P63F,A33VGSEJ44ORMF,352YTHGRO4E2Z7RDTAOEOZU1083H41,RT254,RT254,352YTHGRO4E2Z7RDTAOEOZU1083H41,352YTHGRO4E2Z7RDTAOEOZU1083H41,338054,338054,3,0.06,"""",1315.9000000003725,1,stim4,0,Counter-clockwise,false,"""",0.3,120,"""","""","2021-12-31 03:30:30",73.144.104.225,"Mozilla/5.0 (Windows NT 10.0; Win64; x64) AppleWebKit/537.36 (KHTML, like Gecko) Chrome/96.0.4664.110 Safari/537.36",WebKit,Chrome,96.0.4664.110,Windows,10.0,ac0f2dffeffaa78d35a552e03d03f0a8
14,3,"""",test_procedure,confidence_rating,html-slider-response,108,326137,0.0-11.0-0.0-2.22,3SD15I2WEBVYX2RZ7BNPTJHHA9P63F,A33VGSEJ44ORMF,352YTHGRO4E2Z7RDTAOEOZU1083H41,RT254,RT254,352YTHGRO4E2Z7RDTAOEOZU1083H41,352YTHGRO4E2Z7RDTAOEOZU1083H41,338054,338054,3,0.06,"""",1981.699999999255,58,"<div id=""message-div""><p>How confident are you that your clockwise/counter-clockwise response just now was accurate? Please rate your confidence on the slider bar below.</p></div>","""","""","""",50,"""","""","""",58,"2021-12-31 03:30:30",73.144.104.225,"Mozilla/5.0 (Windows NT 10.0; Win64; x64) AppleWebKit/537.36 (KHTML, like Gecko) Chrome/96.0.4664.110 Safari/537.36",WebKit,Chrome,96.0.4664.110,Windows,10.0,ac0f2dffeffaa78d35a552e03d03f0a8
14,3,"""",test_procedure,fixation,html-keyboard-response,109,326640,0.0-11.0-0.0-0.23,3SD15I2WEBVYX2RZ7BNPTJHHA9P63F,A33VGSEJ44ORMF,352YTHGRO4E2Z7RDTAOEOZU1083H41,RT254,RT254,352YTHGRO4E2Z7RDTAOEOZU1083H41,352YTHGRO4E2Z7RDTAOEOZU1083H41,338054,338054,3,0.06,"""",null,null,"<div class = fixationbox><div class = fixation>+</div></div>","""","""","""","""","""","""","""","""","2021-12-31 03:30:30",73.144.104.225,"Mozilla/5.0 (Windows NT 10.0; Win64; x64) AppleWebKit/537.36 (KHTML, like Gecko) Chrome/96.0.4664.110 Safari/537.36",WebKit,Chrome,96.0.4664.110,Windows,10.0,ac0f2dffeffaa78d35a552e03d03f0a8
14,3,"""",test_procedure,stim_test,canvas-button-response,110,327977,0.0-11.0-0.0-1.23,3SD15I2WEBVYX2RZ7BNPTJHHA9P63F,A33VGSEJ44ORMF,352YTHGRO4E2Z7RDTAOEOZU1083H41,RT254,RT254,352YTHGRO4E2Z7RDTAOEOZU1083H41,352YTHGRO4E2Z7RDTAOEOZU1083H41,338054,338054,3,0.06,"""",1307.2000000011176,1,catchStim3,1,Clockwise,true,"""",0.01,60,0.001,"""","2021-12-31 03:30:30",73.144.104.225,"Mozilla/5.0 (Windows NT 10.0; Win64; x64) AppleWebKit/537.36 (KHTML, like Gecko) Chrome/96.0.4664.110 Safari/537.36",WebKit,Chrome,96.0.4664.110,Windows,10.0,ac0f2dffeffaa78d35a552e03d03f0a8
14,3,"""",test_procedure,confidence_rating,html-slider-response,111,330120,0.0-11.0-0.0-2.23,3SD15I2WEBVYX2RZ7BNPTJHHA9P63F,A33VGSEJ44ORMF,352YTHGRO4E2Z7RDTAOEOZU1083H41,RT254,RT254,352YTHGRO4E2Z7RDTAOEOZU1083H41,352YTHGRO4E2Z7RDTAOEOZU1083H41,338054,338054,3,0.06,"""",2141.0999999996275,39,"<div id=""message-div""><p>How confident are you that your clockwise/counter-clockwise response just now was accurate? Please rate your confidence on the slider bar below.</p></div>","""","""","""",50,"""","""","""",39,"2021-12-31 03:30:30",73.144.104.225,"Mozilla/5.0 (Windows NT 10.0; Win64; x64) AppleWebKit/537.36 (KHTML, like Gecko) Chrome/96.0.4664.110 Safari/537.36",WebKit,Chrome,96.0.4664.110,Windows,10.0,ac0f2dffeffaa78d35a552e03d03f0a8
14,3,"""",test_procedure,rest_block,html-button-response,112,335933,0.0-11.0-0.0-3.23-0.23,3SD15I2WEBVYX2RZ7BNPTJHHA9P63F,A33VGSEJ44ORMF,352YTHGRO4E2Z7RDTAOEOZU1083H41,RT254,RT254,352YTHGRO4E2Z7RDTAOEOZU1083H41,352YTHGRO4E2Z7RDTAOEOZU1083H41,338054,338054,3,0.06,"""",5811.5,0,"[""<p>You responded correctly on 70.83% of the trials in the previous section.</p><p>Time to take a break!</p><p>Once you're ready, press the \"Continue\" button to continue.</p>""]","""","""","""","""","""","""","""","""","2021-12-31 03:30:30",73.144.104.225,"Mozilla/5.0 (Windows NT 10.0; Win64; x64) AppleWebKit/537.36 (KHTML, like Gecko) Chrome/96.0.4664.110 Safari/537.36",WebKit,Chrome,96.0.4664.110,Windows,10.0,ac0f2dffeffaa78d35a552e03d03f0a8
14,3,"""",test_procedure,fixation,html-keyboard-response,113,336437,0.0-11.0-0.1-0.24,3SD15I2WEBVYX2RZ7BNPTJHHA9P63F,A33VGSEJ44ORMF,352YTHGRO4E2Z7RDTAOEOZU1083H41,RT254,RT254,352YTHGRO4E2Z7RDTAOEOZU1083H41,352YTHGRO4E2Z7RDTAOEOZU1083H41,338054,338054,3,0.06,"""",null,null,"<div class = fixationbox><div class = fixation>+</div></div>","""","""","""","""","""","""","""","""","2021-12-31 03:30:30",73.144.104.225,"Mozilla/5.0 (Windows NT 10.0; Win64; x64) AppleWebKit/537.36 (KHTML, like Gecko) Chrome/96.0.4664.110 Safari/537.36",WebKit,Chrome,96.0.4664.110,Windows,10.0,ac0f2dffeffaa78d35a552e03d03f0a8
14,3,"""",test_procedure,stim_test,canvas-button-response,114,338062,0.0-11.0-0.1-1.24,3SD15I2WEBVYX2RZ7BNPTJHHA9P63F,A33VGSEJ44ORMF,352YTHGRO4E2Z7RDTAOEOZU1083H41,RT254,RT254,352YTHGRO4E2Z7RDTAOEOZU1083H41,352YTHGRO4E2Z7RDTAOEOZU1083H41,338054,338054,3,0.06,"""",1530.800000000745,1,stim2,0,Counter-clockwise,false,"""",0.01,120,"""","""","2021-12-31 03:30:30",73.144.104.225,"Mozilla/5.0 (Windows NT 10.0; Win64; x64) AppleWebKit/537.36 (KHTML, like Gecko) Chrome/96.0.4664.110 Safari/537.36",WebKit,Chrome,96.0.4664.110,Windows,10.0,ac0f2dffeffaa78d35a552e03d03f0a8
14,3,"""",test_procedure,confidence_rating,html-slider-response,115,340227,0.0-11.0-0.1-2.24,3SD15I2WEBVYX2RZ7BNPTJHHA9P63F,A33VGSEJ44ORMF,352YTHGRO4E2Z7RDTAOEOZU1083H41,RT254,RT254,352YTHGRO4E2Z7RDTAOEOZU1083H41,352YTHGRO4E2Z7RDTAOEOZU1083H41,338054,338054,3,0.06,"""",2163.9000000003725,60,"<div id=""message-div""><p>How confident are you that your clockwise/counter-clockwise response just now was accurate? Please rate your confidence on the slider bar below.</p></div>","""","""","""",50,"""","""","""",60,"2021-12-31 03:30:30",73.144.104.225,"Mozilla/5.0 (Windows NT 10.0; Win64; x64) AppleWebKit/537.36 (KHTML, like Gecko) Chrome/96.0.4664.110 Safari/537.36",WebKit,Chrome,96.0.4664.110,Windows,10.0,ac0f2dffeffaa78d35a552e03d03f0a8
14,3,"""",test_procedure,fixation,html-keyboard-response,116,340729,0.0-11.0-0.1-0.25,3SD15I2WEBVYX2RZ7BNPTJHHA9P63F,A33VGSEJ44ORMF,352YTHGRO4E2Z7RDTAOEOZU1083H41,RT254,RT254,352YTHGRO4E2Z7RDTAOEOZU1083H41,352YTHGRO4E2Z7RDTAOEOZU1083H41,338054,338054,3,0.06,"""",null,null,"<div class = fixationbox><div class = fixation>+</div></div>","""","""","""","""","""","""","""","""","2021-12-31 03:30:30",73.144.104.225,"Mozilla/5.0 (Windows NT 10.0; Win64; x64) AppleWebKit/537.36 (KHTML, like Gecko) Chrome/96.0.4664.110 Safari/537.36",WebKit,Chrome,96.0.4664.110,Windows,10.0,ac0f2dffeffaa78d35a552e03d03f0a8
14,3,"""",test_procedure,stim_test,canvas-button-response,117,342170,0.0-11.0-0.1-1.25,3SD15I2WEBVYX2RZ7BNPTJHHA9P63F,A33VGSEJ44ORMF,352YTHGRO4E2Z7RDTAOEOZU1083H41,RT254,RT254,352YTHGRO4E2Z7RDTAOEOZU1083H41,352YTHGRO4E2Z7RDTAOEOZU1083H41,338054,338054,3,0.06,"""",1411.5,1,stim1,1,Clockwise,true,"""",0.01,60,"""","""","2021-12-31 03:30:30",73.144.104.225,"Mozilla/5.0 (Windows NT 10.0; Win64; x64) AppleWebKit/537.36 (KHTML, like Gecko) Chrome/96.0.4664.110 Safari/537.36",WebKit,Chrome,96.0.4664.110,Windows,10.0,ac0f2dffeffaa78d35a552e03d03f0a8
14,3,"""",test_procedure,confidence_rating,html-slider-response,118,344178,0.0-11.0-0.1-2.25,3SD15I2WEBVYX2RZ7BNPTJHHA9P63F,A33VGSEJ44ORMF,352YTHGRO4E2Z7RDTAOEOZU1083H41,RT254,RT254,352YTHGRO4E2Z7RDTAOEOZU1083H41,352YTHGRO4E2Z7RDTAOEOZU1083H41,338054,338054,3,0.06,"""",2006.300000000745,49,"<div id=""message-div""><p>How confident are you that your clockwise/counter-clockwise response just now was accurate? Please rate your confidence on the slider bar below.</p></div>","""","""","""",50,"""","""","""",49,"2021-12-31 03:30:30",73.144.104.225,"Mozilla/5.0 (Windows NT 10.0; Win64; x64) AppleWebKit/537.36 (KHTML, like Gecko) Chrome/96.0.4664.110 Safari/537.36",WebKit,Chrome,96.0.4664.110,Windows,10.0,ac0f2dffeffaa78d35a552e03d03f0a8
14,3,"""",test_procedure,fixation,html-keyboard-response,119,344683,0.0-11.0-0.1-0.26,3SD15I2WEBVYX2RZ7BNPTJHHA9P63F,A33VGSEJ44ORMF,352YTHGRO4E2Z7RDTAOEOZU1083H41,RT254,RT254,352YTHGRO4E2Z7RDTAOEOZU1083H41,352YTHGRO4E2Z7RDTAOEOZU1083H41,338054,338054,3,0.06,"""",null,null,"<div class = fixationbox><div class = fixation>+</div></div>","""","""","""","""","""","""","""","""","2021-12-31 03:30:30",73.144.104.225,"Mozilla/5.0 (Windows NT 10.0; Win64; x64) AppleWebKit/537.36 (KHTML, like Gecko) Chrome/96.0.4664.110 Safari/537.36",WebKit,Chrome,96.0.4664.110,Windows,10.0,ac0f2dffeffaa78d35a552e03d03f0a8
14,3,"""",test_procedure,stim_test,canvas-button-response,120,346495,0.0-11.0-0.1-1.26,3SD15I2WEBVYX2RZ7BNPTJHHA9P63F,A33VGSEJ44ORMF,352YTHGRO4E2Z7RDTAOEOZU1083H41,RT254,RT254,352YTHGRO4E2Z7RDTAOEOZU1083H41,352YTHGRO4E2Z7RDTAOEOZU1083H41,338054,338054,3,0.06,"""",1782.199999999255,1,stim3,1,Clockwise,true,"""",0.3,60,"""","""","2021-12-31 03:30:30",73.144.104.225,"Mozilla/5.0 (Windows NT 10.0; Win64; x64) AppleWebKit/537.36 (KHTML, like Gecko) Chrome/96.0.4664.110 Safari/537.36",WebKit,Chrome,96.0.4664.110,Windows,10.0,ac0f2dffeffaa78d35a552e03d03f0a8
14,3,"""",test_procedure,confidence_rating,html-slider-response,121,357582,0.0-11.0-0.1-2.26,3SD15I2WEBVYX2RZ7BNPTJHHA9P63F,A33VGSEJ44ORMF,352YTHGRO4E2Z7RDTAOEOZU1083H41,RT254,RT254,352YTHGRO4E2Z7RDTAOEOZU1083H41,352YTHGRO4E2Z7RDTAOEOZU1083H41,338054,338054,3,0.06,"""",11085.39999999851,30,"<div id=""message-div""><p>How confident are you that your clockwise/counter-clockwise response just now was accurate? Please rate your confidence on the slider bar below.</p></div>","""","""","""",50,"""","""","""",30,"2021-12-31 03:30:30",73.144.104.225,"Mozilla/5.0 (Windows NT 10.0; Win64; x64) AppleWebKit/537.36 (KHTML, like Gecko) Chrome/96.0.4664.110 Safari/537.36",WebKit,Chrome,96.0.4664.110,Windows,10.0,ac0f2dffeffaa78d35a552e03d03f0a8
14,3,"""",test_procedure,fixation,html-keyboard-response,122,358085,0.0-11.0-0.1-0.27,3SD15I2WEBVYX2RZ7BNPTJHHA9P63F,A33VGSEJ44ORMF,352YTHGRO4E2Z7RDTAOEOZU1083H41,RT254,RT254,352YTHGRO4E2Z7RDTAOEOZU1083H41,352YTHGRO4E2Z7RDTAOEOZU1083H41,338054,338054,3,0.06,"""",null,null,"<div class = fixationbox><div class = fixation>+</div></div>","""","""","""","""","""","""","""","""","2021-12-31 03:30:30",73.144.104.225,"Mozilla/5.0 (Windows NT 10.0; Win64; x64) AppleWebKit/537.36 (KHTML, like Gecko) Chrome/96.0.4664.110 Safari/537.36",WebKit,Chrome,96.0.4664.110,Windows,10.0,ac0f2dffeffaa78d35a552e03d03f0a8
14,3,"""",test_procedure,stim_test,canvas-button-response,123,359801,0.0-11.0-0.1-1.27,3SD15I2WEBVYX2RZ7BNPTJHHA9P63F,A33VGSEJ44ORMF,352YTHGRO4E2Z7RDTAOEOZU1083H41,RT254,RT254,352YTHGRO4E2Z7RDTAOEOZU1083H41,352YTHGRO4E2Z7RDTAOEOZU1083H41,338054,338054,3,0.06,"""",1672.9000000003725,0,stim1,1,Clockwise,false,"""",0.01,60,"""","""","2021-12-31 03:30:30",73.144.104.225,"Mozilla/5.0 (Windows NT 10.0; Win64; x64) AppleWebKit/537.36 (KHTML, like Gecko) Chrome/96.0.4664.110 Safari/537.36",WebKit,Chrome,96.0.4664.110,Windows,10.0,ac0f2dffeffaa78d35a552e03d03f0a8
14,3,"""",test_procedure,confidence_rating,html-slider-response,124,361968,0.0-11.0-0.1-2.27,3SD15I2WEBVYX2RZ7BNPTJHHA9P63F,A33VGSEJ44ORMF,352YTHGRO4E2Z7RDTAOEOZU1083H41,RT254,RT254,352YTHGRO4E2Z7RDTAOEOZU1083H41,352YTHGRO4E2Z7RDTAOEOZU1083H41,338054,338054,3,0.06,"""",2165.7000000011176,10,"<div id=""message-div""><p>How confident are you that your clockwise/counter-clockwise response just now was accurate? Please rate your confidence on the slider bar below.</p></div>","""","""","""",50,"""","""","""",10,"2021-12-31 03:30:30",73.144.104.225,"Mozilla/5.0 (Windows NT 10.0; Win64; x64) AppleWebKit/537.36 (KHTML, like Gecko) Chrome/96.0.4664.110 Safari/537.36",WebKit,Chrome,96.0.4664.110,Windows,10.0,ac0f2dffeffaa78d35a552e03d03f0a8
14,3,"""",test_procedure,fixation,html-keyboard-response,125,362471,0.0-11.0-0.1-0.28,3SD15I2WEBVYX2RZ7BNPTJHHA9P63F,A33VGSEJ44ORMF,352YTHGRO4E2Z7RDTAOEOZU1083H41,RT254,RT254,352YTHGRO4E2Z7RDTAOEOZU1083H41,352YTHGRO4E2Z7RDTAOEOZU1083H41,338054,338054,3,0.06,"""",null,null,"<div class = fixationbox><div class = fixation>+</div></div>","""","""","""","""","""","""","""","""","2021-12-31 03:30:30",73.144.104.225,"Mozilla/5.0 (Windows NT 10.0; Win64; x64) AppleWebKit/537.36 (KHTML, like Gecko) Chrome/96.0.4664.110 Safari/537.36",WebKit,Chrome,96.0.4664.110,Windows,10.0,ac0f2dffeffaa78d35a552e03d03f0a8
14,3,"""",test_procedure,stim_test,canvas-button-response,126,363825,0.0-11.0-0.1-1.28,3SD15I2WEBVYX2RZ7BNPTJHHA9P63F,A33VGSEJ44ORMF,352YTHGRO4E2Z7RDTAOEOZU1083H41,RT254,RT254,352YTHGRO4E2Z7RDTAOEOZU1083H41,352YTHGRO4E2Z7RDTAOEOZU1083H41,338054,338054,3,0.06,"""",1315.0999999996275,1,catchStim5,1,Clockwise,true,"""",0.3,60,0.6,"""","2021-12-31 03:30:30",73.144.104.225,"Mozilla/5.0 (Windows NT 10.0; Win64; x64) AppleWebKit/537.36 (KHTML, like Gecko) Chrome/96.0.4664.110 Safari/537.36",WebKit,Chrome,96.0.4664.110,Windows,10.0,ac0f2dffeffaa78d35a552e03d03f0a8
14,3,"""",test_procedure,confidence_rating,html-slider-response,127,365879,0.0-11.0-0.1-2.28,3SD15I2WEBVYX2RZ7BNPTJHHA9P63F,A33VGSEJ44ORMF,352YTHGRO4E2Z7RDTAOEOZU1083H41,RT254,RT254,352YTHGRO4E2Z7RDTAOEOZU1083H41,352YTHGRO4E2Z7RDTAOEOZU1083H41,338054,338054,3,0.06,"""",2053.2999999988824,94,"<div id=""message-div""><p>How confident are you that your clockwise/counter-clockwise response just now was accurate? Please rate your confidence on the slider bar below.</p></div>","""","""","""",50,"""","""","""",94,"2021-12-31 03:30:30",73.144.104.225,"Mozilla/5.0 (Windows NT 10.0; Win64; x64) AppleWebKit/537.36 (KHTML, like Gecko) Chrome/96.0.4664.110 Safari/537.36",WebKit,Chrome,96.0.4664.110,Windows,10.0,ac0f2dffeffaa78d35a552e03d03f0a8
14,3,"""",test_procedure,fixation,html-keyboard-response,128,366384,0.0-11.0-0.1-0.29,3SD15I2WEBVYX2RZ7BNPTJHHA9P63F,A33VGSEJ44ORMF,352YTHGRO4E2Z7RDTAOEOZU1083H41,RT254,RT254,352YTHGRO4E2Z7RDTAOEOZU1083H41,352YTHGRO4E2Z7RDTAOEOZU1083H41,338054,338054,3,0.06,"""",null,null,"<div class = fixationbox><div class = fixation>+</div></div>","""","""","""","""","""","""","""","""","2021-12-31 03:30:30",73.144.104.225,"Mozilla/5.0 (Windows NT 10.0; Win64; x64) AppleWebKit/537.36 (KHTML, like Gecko) Chrome/96.0.4664.110 Safari/537.36",WebKit,Chrome,96.0.4664.110,Windows,10.0,ac0f2dffeffaa78d35a552e03d03f0a8
14,3,"""",test_procedure,stim_test,canvas-button-response,129,367694,0.0-11.0-0.1-1.29,3SD15I2WEBVYX2RZ7BNPTJHHA9P63F,A33VGSEJ44ORMF,352YTHGRO4E2Z7RDTAOEOZU1083H41,RT254,RT254,352YTHGRO4E2Z7RDTAOEOZU1083H41,352YTHGRO4E2Z7RDTAOEOZU1083H41,338054,338054,3,0.06,"""",1272.2999999988824,0,stim4,0,Counter-clockwise,true,"""",0.3,120,"""","""","2021-12-31 03:30:30",73.144.104.225,"Mozilla/5.0 (Windows NT 10.0; Win64; x64) AppleWebKit/537.36 (KHTML, like Gecko) Chrome/96.0.4664.110 Safari/537.36",WebKit,Chrome,96.0.4664.110,Windows,10.0,ac0f2dffeffaa78d35a552e03d03f0a8
14,3,"""",test_procedure,confidence_rating,html-slider-response,130,369957,0.0-11.0-0.1-2.29,3SD15I2WEBVYX2RZ7BNPTJHHA9P63F,A33VGSEJ44ORMF,352YTHGRO4E2Z7RDTAOEOZU1083H41,RT254,RT254,352YTHGRO4E2Z7RDTAOEOZU1083H41,352YTHGRO4E2Z7RDTAOEOZU1083H41,338054,338054,3,0.06,"""",2262,69,"<div id=""message-div""><p>How confident are you that your clockwise/counter-clockwise response just now was accurate? Please rate your confidence on the slider bar below.</p></div>","""","""","""",50,"""","""","""",69,"2021-12-31 03:30:30",73.144.104.225,"Mozilla/5.0 (Windows NT 10.0; Win64; x64) AppleWebKit/537.36 (KHTML, like Gecko) Chrome/96.0.4664.110 Safari/537.36",WebKit,Chrome,96.0.4664.110,Windows,10.0,ac0f2dffeffaa78d35a552e03d03f0a8
14,3,"""",test_procedure,fixation,html-keyboard-response,131,370458,0.0-11.0-0.1-0.30,3SD15I2WEBVYX2RZ7BNPTJHHA9P63F,A33VGSEJ44ORMF,352YTHGRO4E2Z7RDTAOEOZU1083H41,RT254,RT254,352YTHGRO4E2Z7RDTAOEOZU1083H41,352YTHGRO4E2Z7RDTAOEOZU1083H41,338054,338054,3,0.06,"""",null,null,"<div class = fixationbox><div class = fixation>+</div></div>","""","""","""","""","""","""","""","""","2021-12-31 03:30:30",73.144.104.225,"Mozilla/5.0 (Windows NT 10.0; Win64; x64) AppleWebKit/537.36 (KHTML, like Gecko) Chrome/96.0.4664.110 Safari/537.36",WebKit,Chrome,96.0.4664.110,Windows,10.0,ac0f2dffeffaa78d35a552e03d03f0a8
14,3,"""",test_procedure,stim_test,canvas-button-response,132,371620,0.0-11.0-0.1-1.30,3SD15I2WEBVYX2RZ7BNPTJHHA9P63F,A33VGSEJ44ORMF,352YTHGRO4E2Z7RDTAOEOZU1083H41,RT254,RT254,352YTHGRO4E2Z7RDTAOEOZU1083H41,352YTHGRO4E2Z7RDTAOEOZU1083H41,338054,338054,3,0.06,"""",1115.5999999996275,0,catchStim2,0,Counter-clockwise,true,"""",0.01,120,0.6,"""","2021-12-31 03:30:30",73.144.104.225,"Mozilla/5.0 (Windows NT 10.0; Win64; x64) AppleWebKit/537.36 (KHTML, like Gecko) Chrome/96.0.4664.110 Safari/537.36",WebKit,Chrome,96.0.4664.110,Windows,10.0,ac0f2dffeffaa78d35a552e03d03f0a8
14,3,"""",test_procedure,confidence_rating,html-slider-response,133,374540,0.0-11.0-0.1-2.30,3SD15I2WEBVYX2RZ7BNPTJHHA9P63F,A33VGSEJ44ORMF,352YTHGRO4E2Z7RDTAOEOZU1083H41,RT254,RT254,352YTHGRO4E2Z7RDTAOEOZU1083H41,352YTHGRO4E2Z7RDTAOEOZU1083H41,338054,338054,3,0.06,"""",2918.5999999996275,97,"<div id=""message-div""><p>How confident are you that your clockwise/counter-clockwise response just now was accurate? Please rate your confidence on the slider bar below.</p></div>","""","""","""",50,"""","""","""",97,"2021-12-31 03:30:30",73.144.104.225,"Mozilla/5.0 (Windows NT 10.0; Win64; x64) AppleWebKit/537.36 (KHTML, like Gecko) Chrome/96.0.4664.110 Safari/537.36",WebKit,Chrome,96.0.4664.110,Windows,10.0,ac0f2dffeffaa78d35a552e03d03f0a8
14,3,"""",test_procedure,fixation,html-keyboard-response,134,375046,0.0-11.0-0.1-0.31,3SD15I2WEBVYX2RZ7BNPTJHHA9P63F,A33VGSEJ44ORMF,352YTHGRO4E2Z7RDTAOEOZU1083H41,RT254,RT254,352YTHGRO4E2Z7RDTAOEOZU1083H41,352YTHGRO4E2Z7RDTAOEOZU1083H41,338054,338054,3,0.06,"""",null,null,"<div class = fixationbox><div class = fixation>+</div></div>","""","""","""","""","""","""","""","""","2021-12-31 03:30:30",73.144.104.225,"Mozilla/5.0 (Windows NT 10.0; Win64; x64) AppleWebKit/537.36 (KHTML, like Gecko) Chrome/96.0.4664.110 Safari/537.36",WebKit,Chrome,96.0.4664.110,Windows,10.0,ac0f2dffeffaa78d35a552e03d03f0a8
14,3,"""",test_procedure,stim_test,canvas-button-response,135,376755,0.0-11.0-0.1-1.31,3SD15I2WEBVYX2RZ7BNPTJHHA9P63F,A33VGSEJ44ORMF,352YTHGRO4E2Z7RDTAOEOZU1083H41,RT254,RT254,352YTHGRO4E2Z7RDTAOEOZU1083H41,352YTHGRO4E2Z7RDTAOEOZU1083H41,338054,338054,3,0.06,"""",1673.5999999996275,0,stim4,0,Counter-clockwise,true,"""",0.3,120,"""","""","2021-12-31 03:30:30",73.144.104.225,"Mozilla/5.0 (Windows NT 10.0; Win64; x64) AppleWebKit/537.36 (KHTML, like Gecko) Chrome/96.0.4664.110 Safari/537.36",WebKit,Chrome,96.0.4664.110,Windows,10.0,ac0f2dffeffaa78d35a552e03d03f0a8
14,3,"""",test_procedure,confidence_rating,html-slider-response,136,378841,0.0-11.0-0.1-2.31,3SD15I2WEBVYX2RZ7BNPTJHHA9P63F,A33VGSEJ44ORMF,352YTHGRO4E2Z7RDTAOEOZU1083H41,RT254,RT254,352YTHGRO4E2Z7RDTAOEOZU1083H41,352YTHGRO4E2Z7RDTAOEOZU1083H41,338054,338054,3,0.06,"""",2084.300000000745,84,"<div id=""message-div""><p>How confident are you that your clockwise/counter-clockwise response just now was accurate? Please rate your confidence on the slider bar below.</p></div>","""","""","""",50,"""","""","""",84,"2021-12-31 03:30:30",73.144.104.225,"Mozilla/5.0 (Windows NT 10.0; Win64; x64) AppleWebKit/537.36 (KHTML, like Gecko) Chrome/96.0.4664.110 Safari/537.36",WebKit,Chrome,96.0.4664.110,Windows,10.0,ac0f2dffeffaa78d35a552e03d03f0a8
14,3,"""",test_procedure,fixation,html-keyboard-response,137,379343,0.0-11.0-0.1-0.32,3SD15I2WEBVYX2RZ7BNPTJHHA9P63F,A33VGSEJ44ORMF,352YTHGRO4E2Z7RDTAOEOZU1083H41,RT254,RT254,352YTHGRO4E2Z7RDTAOEOZU1083H41,352YTHGRO4E2Z7RDTAOEOZU1083H41,338054,338054,3,0.06,"""",null,null,"<div class = fixationbox><div class = fixation>+</div></div>","""","""","""","""","""","""","""","""","2021-12-31 03:30:30",73.144.104.225,"Mozilla/5.0 (Windows NT 10.0; Win64; x64) AppleWebKit/537.36 (KHTML, like Gecko) Chrome/96.0.4664.110 Safari/537.36",WebKit,Chrome,96.0.4664.110,Windows,10.0,ac0f2dffeffaa78d35a552e03d03f0a8
14,3,"""",test_procedure,stim_test,canvas-button-response,138,380608,0.0-11.0-0.1-1.32,3SD15I2WEBVYX2RZ7BNPTJHHA9P63F,A33VGSEJ44ORMF,352YTHGRO4E2Z7RDTAOEOZU1083H41,RT254,RT254,352YTHGRO4E2Z7RDTAOEOZU1083H41,352YTHGRO4E2Z7RDTAOEOZU1083H41,338054,338054,3,0.06,"""",1234.4000000003725,0,stim4,0,Counter-clockwise,true,"""",0.3,120,"""","""","2021-12-31 03:30:30",73.144.104.225,"Mozilla/5.0 (Windows NT 10.0; Win64; x64) AppleWebKit/537.36 (KHTML, like Gecko) Chrome/96.0.4664.110 Safari/537.36",WebKit,Chrome,96.0.4664.110,Windows,10.0,ac0f2dffeffaa78d35a552e03d03f0a8
14,3,"""",test_procedure,confidence_rating,html-slider-response,139,382352,0.0-11.0-0.1-2.32,3SD15I2WEBVYX2RZ7BNPTJHHA9P63F,A33VGSEJ44ORMF,352YTHGRO4E2Z7RDTAOEOZU1083H41,RT254,RT254,352YTHGRO4E2Z7RDTAOEOZU1083H41,352YTHGRO4E2Z7RDTAOEOZU1083H41,338054,338054,3,0.06,"""",1742.9000000003725,56,"<div id=""message-div""><p>How confident are you that your clockwise/counter-clockwise response just now was accurate? Please rate your confidence on the slider bar below.</p></div>","""","""","""",50,"""","""","""",56,"2021-12-31 03:30:30",73.144.104.225,"Mozilla/5.0 (Windows NT 10.0; Win64; x64) AppleWebKit/537.36 (KHTML, like Gecko) Chrome/96.0.4664.110 Safari/537.36",WebKit,Chrome,96.0.4664.110,Windows,10.0,ac0f2dffeffaa78d35a552e03d03f0a8
14,3,"""",test_procedure,fixation,html-keyboard-response,140,382857,0.0-11.0-0.1-0.33,3SD15I2WEBVYX2RZ7BNPTJHHA9P63F,A33VGSEJ44ORMF,352YTHGRO4E2Z7RDTAOEOZU1083H41,RT254,RT254,352YTHGRO4E2Z7RDTAOEOZU1083H41,352YTHGRO4E2Z7RDTAOEOZU1083H41,338054,338054,3,0.06,"""",null,null,"<div class = fixationbox><div class = fixation>+</div></div>","""","""","""","""","""","""","""","""","2021-12-31 03:30:30",73.144.104.225,"Mozilla/5.0 (Windows NT 10.0; Win64; x64) AppleWebKit/537.36 (KHTML, like Gecko) Chrome/96.0.4664.110 Safari/537.36",WebKit,Chrome,96.0.4664.110,Windows,10.0,ac0f2dffeffaa78d35a552e03d03f0a8
14,3,"""",test_procedure,stim_test,canvas-button-response,141,384431,0.0-11.0-0.1-1.33,3SD15I2WEBVYX2RZ7BNPTJHHA9P63F,A33VGSEJ44ORMF,352YTHGRO4E2Z7RDTAOEOZU1083H41,RT254,RT254,352YTHGRO4E2Z7RDTAOEOZU1083H41,352YTHGRO4E2Z7RDTAOEOZU1083H41,338054,338054,3,0.06,"""",1543.800000000745,1,stim3,1,Clockwise,true,"""",0.3,60,"""","""","2021-12-31 03:30:30",73.144.104.225,"Mozilla/5.0 (Windows NT 10.0; Win64; x64) AppleWebKit/537.36 (KHTML, like Gecko) Chrome/96.0.4664.110 Safari/537.36",WebKit,Chrome,96.0.4664.110,Windows,10.0,ac0f2dffeffaa78d35a552e03d03f0a8
14,3,"""",test_procedure,confidence_rating,html-slider-response,142,395802,0.0-11.0-0.1-2.33,3SD15I2WEBVYX2RZ7BNPTJHHA9P63F,A33VGSEJ44ORMF,352YTHGRO4E2Z7RDTAOEOZU1083H41,RT254,RT254,352YTHGRO4E2Z7RDTAOEOZU1083H41,352YTHGRO4E2Z7RDTAOEOZU1083H41,338054,338054,3,0.06,"""",11369.89999999851,50,"<div id=""message-div""><p>How confident are you that your clockwise/counter-clockwise response just now was accurate? Please rate your confidence on the slider bar below.</p></div>","""","""","""",50,"""","""","""",50,"2021-12-31 03:30:30",73.144.104.225,"Mozilla/5.0 (Windows NT 10.0; Win64; x64) AppleWebKit/537.36 (KHTML, like Gecko) Chrome/96.0.4664.110 Safari/537.36",WebKit,Chrome,96.0.4664.110,Windows,10.0,ac0f2dffeffaa78d35a552e03d03f0a8
14,3,"""",test_procedure,fixation,html-keyboard-response,143,396307,0.0-11.0-0.1-0.34,3SD15I2WEBVYX2RZ7BNPTJHHA9P63F,A33VGSEJ44ORMF,352YTHGRO4E2Z7RDTAOEOZU1083H41,RT254,RT254,352YTHGRO4E2Z7RDTAOEOZU1083H41,352YTHGRO4E2Z7RDTAOEOZU1083H41,338054,338054,3,0.06,"""",null,null,"<div class = fixationbox><div class = fixation>+</div></div>","""","""","""","""","""","""","""","""","2021-12-31 03:30:30",73.144.104.225,"Mozilla/5.0 (Windows NT 10.0; Win64; x64) AppleWebKit/537.36 (KHTML, like Gecko) Chrome/96.0.4664.110 Safari/537.36",WebKit,Chrome,96.0.4664.110,Windows,10.0,ac0f2dffeffaa78d35a552e03d03f0a8
14,3,"""",test_procedure,stim_test,canvas-button-response,144,397777,0.0-11.0-0.1-1.34,3SD15I2WEBVYX2RZ7BNPTJHHA9P63F,A33VGSEJ44ORMF,352YTHGRO4E2Z7RDTAOEOZU1083H41,RT254,RT254,352YTHGRO4E2Z7RDTAOEOZU1083H41,352YTHGRO4E2Z7RDTAOEOZU1083H41,338054,338054,3,0.06,"""",1425.699999999255,1,stim1,1,Clockwise,true,"""",0.01,60,"""","""","2021-12-31 03:30:30",73.144.104.225,"Mozilla/5.0 (Windows NT 10.0; Win64; x64) AppleWebKit/537.36 (KHTML, like Gecko) Chrome/96.0.4664.110 Safari/537.36",WebKit,Chrome,96.0.4664.110,Windows,10.0,ac0f2dffeffaa78d35a552e03d03f0a8
14,3,"""",test_procedure,confidence_rating,html-slider-response,145,400016,0.0-11.0-0.1-2.34,3SD15I2WEBVYX2RZ7BNPTJHHA9P63F,A33VGSEJ44ORMF,352YTHGRO4E2Z7RDTAOEOZU1083H41,RT254,RT254,352YTHGRO4E2Z7RDTAOEOZU1083H41,352YTHGRO4E2Z7RDTAOEOZU1083H41,338054,338054,3,0.06,"""",2237.5999999996275,70,"<div id=""message-div""><p>How confident are you that your clockwise/counter-clockwise response just now was accurate? Please rate your confidence on the slider bar below.</p></div>","""","""","""",50,"""","""","""",70,"2021-12-31 03:30:30",73.144.104.225,"Mozilla/5.0 (Windows NT 10.0; Win64; x64) AppleWebKit/537.36 (KHTML, like Gecko) Chrome/96.0.4664.110 Safari/537.36",WebKit,Chrome,96.0.4664.110,Windows,10.0,ac0f2dffeffaa78d35a552e03d03f0a8
14,3,"""",test_procedure,fixation,html-keyboard-response,146,400519,0.0-11.0-0.1-0.35,3SD15I2WEBVYX2RZ7BNPTJHHA9P63F,A33VGSEJ44ORMF,352YTHGRO4E2Z7RDTAOEOZU1083H41,RT254,RT254,352YTHGRO4E2Z7RDTAOEOZU1083H41,352YTHGRO4E2Z7RDTAOEOZU1083H41,338054,338054,3,0.06,"""",null,null,"<div class = fixationbox><div class = fixation>+</div></div>","""","""","""","""","""","""","""","""","2021-12-31 03:30:30",73.144.104.225,"Mozilla/5.0 (Windows NT 10.0; Win64; x64) AppleWebKit/537.36 (KHTML, like Gecko) Chrome/96.0.4664.110 Safari/537.36",WebKit,Chrome,96.0.4664.110,Windows,10.0,ac0f2dffeffaa78d35a552e03d03f0a8
14,3,"""",test_procedure,stim_test,canvas-button-response,147,401799,0.0-11.0-0.1-1.35,3SD15I2WEBVYX2RZ7BNPTJHHA9P63F,A33VGSEJ44ORMF,352YTHGRO4E2Z7RDTAOEOZU1083H41,RT254,RT254,352YTHGRO4E2Z7RDTAOEOZU1083H41,352YTHGRO4E2Z7RDTAOEOZU1083H41,338054,338054,3,0.06,"""",1224.6000000014901,0,catchStim3,1,Clockwise,false,"""",0.01,60,0.001,"""","2021-12-31 03:30:30",73.144.104.225,"Mozilla/5.0 (Windows NT 10.0; Win64; x64) AppleWebKit/537.36 (KHTML, like Gecko) Chrome/96.0.4664.110 Safari/537.36",WebKit,Chrome,96.0.4664.110,Windows,10.0,ac0f2dffeffaa78d35a552e03d03f0a8
14,3,"""",test_procedure,confidence_rating,html-slider-response,148,404022,0.0-11.0-0.1-2.35,3SD15I2WEBVYX2RZ7BNPTJHHA9P63F,A33VGSEJ44ORMF,352YTHGRO4E2Z7RDTAOEOZU1083H41,RT254,RT254,352YTHGRO4E2Z7RDTAOEOZU1083H41,352YTHGRO4E2Z7RDTAOEOZU1083H41,338054,338054,3,0.06,"""",2222.0999999996275,58,"<div id=""message-div""><p>How confident are you that your clockwise/counter-clockwise response just now was accurate? Please rate your confidence on the slider bar below.</p></div>","""","""","""",50,"""","""","""",58,"2021-12-31 03:30:30",73.144.104.225,"Mozilla/5.0 (Windows NT 10.0; Win64; x64) AppleWebKit/537.36 (KHTML, like Gecko) Chrome/96.0.4664.110 Safari/537.36",WebKit,Chrome,96.0.4664.110,Windows,10.0,ac0f2dffeffaa78d35a552e03d03f0a8
14,3,"""",test_procedure,fixation,html-keyboard-response,149,404527,0.0-11.0-0.1-0.36,3SD15I2WEBVYX2RZ7BNPTJHHA9P63F,A33VGSEJ44ORMF,352YTHGRO4E2Z7RDTAOEOZU1083H41,RT254,RT254,352YTHGRO4E2Z7RDTAOEOZU1083H41,352YTHGRO4E2Z7RDTAOEOZU1083H41,338054,338054,3,0.06,"""",null,null,"<div class = fixationbox><div class = fixation>+</div></div>","""","""","""","""","""","""","""","""","2021-12-31 03:30:30",73.144.104.225,"Mozilla/5.0 (Windows NT 10.0; Win64; x64) AppleWebKit/537.36 (KHTML, like Gecko) Chrome/96.0.4664.110 Safari/537.36",WebKit,Chrome,96.0.4664.110,Windows,10.0,ac0f2dffeffaa78d35a552e03d03f0a8
14,3,"""",test_procedure,stim_test,canvas-button-response,150,405717,0.0-11.0-0.1-1.36,3SD15I2WEBVYX2RZ7BNPTJHHA9P63F,A33VGSEJ44ORMF,352YTHGRO4E2Z7RDTAOEOZU1083H41,RT254,RT254,352YTHGRO4E2Z7RDTAOEOZU1083H41,352YTHGRO4E2Z7RDTAOEOZU1083H41,338054,338054,3,0.06,"""",1157.699999999255,0,stim4,0,Counter-clockwise,true,"""",0.3,120,"""","""","2021-12-31 03:30:30",73.144.104.225,"Mozilla/5.0 (Windows NT 10.0; Win64; x64) AppleWebKit/537.36 (KHTML, like Gecko) Chrome/96.0.4664.110 Safari/537.36",WebKit,Chrome,96.0.4664.110,Windows,10.0,ac0f2dffeffaa78d35a552e03d03f0a8
14,3,"""",test_procedure,confidence_rating,html-slider-response,151,408012,0.0-11.0-0.1-2.36,3SD15I2WEBVYX2RZ7BNPTJHHA9P63F,A33VGSEJ44ORMF,352YTHGRO4E2Z7RDTAOEOZU1083H41,RT254,RT254,352YTHGRO4E2Z7RDTAOEOZU1083H41,352YTHGRO4E2Z7RDTAOEOZU1083H41,338054,338054,3,0.06,"""",2293.7000000011176,71,"<div id=""message-div""><p>How confident are you that your clockwise/counter-clockwise response just now was accurate? Please rate your confidence on the slider bar below.</p></div>","""","""","""",50,"""","""","""",71,"2021-12-31 03:30:30",73.144.104.225,"Mozilla/5.0 (Windows NT 10.0; Win64; x64) AppleWebKit/537.36 (KHTML, like Gecko) Chrome/96.0.4664.110 Safari/537.36",WebKit,Chrome,96.0.4664.110,Windows,10.0,ac0f2dffeffaa78d35a552e03d03f0a8
14,3,"""",test_procedure,fixation,html-keyboard-response,152,408512,0.0-11.0-0.1-0.37,3SD15I2WEBVYX2RZ7BNPTJHHA9P63F,A33VGSEJ44ORMF,352YTHGRO4E2Z7RDTAOEOZU1083H41,RT254,RT254,352YTHGRO4E2Z7RDTAOEOZU1083H41,352YTHGRO4E2Z7RDTAOEOZU1083H41,338054,338054,3,0.06,"""",null,null,"<div class = fixationbox><div class = fixation>+</div></div>","""","""","""","""","""","""","""","""","2021-12-31 03:30:30",73.144.104.225,"Mozilla/5.0 (Windows NT 10.0; Win64; x64) AppleWebKit/537.36 (KHTML, like Gecko) Chrome/96.0.4664.110 Safari/537.36",WebKit,Chrome,96.0.4664.110,Windows,10.0,ac0f2dffeffaa78d35a552e03d03f0a8
14,3,"""",test_procedure,stim_test,canvas-button-response,153,410611,0.0-11.0-0.1-1.37,3SD15I2WEBVYX2RZ7BNPTJHHA9P63F,A33VGSEJ44ORMF,352YTHGRO4E2Z7RDTAOEOZU1083H41,RT254,RT254,352YTHGRO4E2Z7RDTAOEOZU1083H41,352YTHGRO4E2Z7RDTAOEOZU1083H41,338054,338054,3,0.06,"""",2067.0999999996275,1,catchStim4,0,Counter-clockwise,false,"""",0.01,120,0.001,"""","2021-12-31 03:30:30",73.144.104.225,"Mozilla/5.0 (Windows NT 10.0; Win64; x64) AppleWebKit/537.36 (KHTML, like Gecko) Chrome/96.0.4664.110 Safari/537.36",WebKit,Chrome,96.0.4664.110,Windows,10.0,ac0f2dffeffaa78d35a552e03d03f0a8
14,3,"""",test_procedure,confidence_rating,html-slider-response,154,412698,0.0-11.0-0.1-2.37,3SD15I2WEBVYX2RZ7BNPTJHHA9P63F,A33VGSEJ44ORMF,352YTHGRO4E2Z7RDTAOEOZU1083H41,RT254,RT254,352YTHGRO4E2Z7RDTAOEOZU1083H41,352YTHGRO4E2Z7RDTAOEOZU1083H41,338054,338054,3,0.06,"""",2083.60000000149,9,"<div id=""message-div""><p>How confident are you that your clockwise/counter-clockwise response just now was accurate? Please rate your confidence on the slider bar below.</p></div>","""","""","""",50,"""","""","""",9,"2021-12-31 03:30:30",73.144.104.225,"Mozilla/5.0 (Windows NT 10.0; Win64; x64) AppleWebKit/537.36 (KHTML, like Gecko) Chrome/96.0.4664.110 Safari/537.36",WebKit,Chrome,96.0.4664.110,Windows,10.0,ac0f2dffeffaa78d35a552e03d03f0a8
14,3,"""",test_procedure,fixation,html-keyboard-response,155,413201,0.0-11.0-0.1-0.38,3SD15I2WEBVYX2RZ7BNPTJHHA9P63F,A33VGSEJ44ORMF,352YTHGRO4E2Z7RDTAOEOZU1083H41,RT254,RT254,352YTHGRO4E2Z7RDTAOEOZU1083H41,352YTHGRO4E2Z7RDTAOEOZU1083H41,338054,338054,3,0.06,"""",null,null,"<div class = fixationbox><div class = fixation>+</div></div>","""","""","""","""","""","""","""","""","2021-12-31 03:30:30",73.144.104.225,"Mozilla/5.0 (Windows NT 10.0; Win64; x64) AppleWebKit/537.36 (KHTML, like Gecko) Chrome/96.0.4664.110 Safari/537.36",WebKit,Chrome,96.0.4664.110,Windows,10.0,ac0f2dffeffaa78d35a552e03d03f0a8
