run_id,condition,success,exp_stage,trial_id,trial_type,trial_index,time_elapsed,internal_node_id,hitId,workerId,assignmentId,a,tp_a,b,tp_b,c,tp_c,conditionmyown,cen_signal_contrast_stim,view_history,rt,response,stimulus,correct_response,correct_response_in_clockwise_or_counterclockwise,correct,slider_start,ctx_signal_contrast,cen_angle_in_degree,cen_signal_contrast_catchStim,confidence,recorded_at,ip,user_agent,device,browser,browser_version,platform,platform_version,source_code_version
12,1,true,pre-exp,fullscreen_starts,fullscreen,0,7862,0.0-0.0,3SD15I2WEBVYX2RZ7BNPTJHHA9P63F,A2FGKKWP33DFWS,34V1S5K3G12NZOD8EMT18GGRDM196O,3SV44,3SV44,34V1S5K3G12NZOD8EMT18GGRDM196O,34V1S5K3G12NZOD8EMT18GGRDM196O,338054,338054,1,0.03,"""","""","""","""","""","""","""","""","""","""","""","""","2021-12-31 03:30:01",192.145.117.242,"Mozilla/5.0 (Windows NT 10.0; Win64; x64) AppleWebKit/537.36 (KHTML, like Gecko) Chrome/96.0.4664.110 Safari/537.36",WebKit,Chrome,96.0.4664.110,Windows,10.0,ac0f2dffeffaa78d35a552e03d03f0a8
12,1,"""",pre-exp,instructionspage1,instructions,1,10682,0.0-1.0-0.0,3SD15I2WEBVYX2RZ7BNPTJHHA9P63F,A2FGKKWP33DFWS,34V1S5K3G12NZOD8EMT18GGRDM196O,3SV44,3SV44,34V1S5K3G12NZOD8EMT18GGRDM196O,34V1S5K3G12NZOD8EMT18GGRDM196O,338054,338054,1,0.03,"[{""page_index"":0,""viewing_time"":2815.7999999523163}]",2816.100000023842,"""","""","""","""","""","""","""","""","""","""","2021-12-31 03:30:01",192.145.117.242,"Mozilla/5.0 (Windows NT 10.0; Win64; x64) AppleWebKit/537.36 (KHTML, like Gecko) Chrome/96.0.4664.110 Safari/537.36",WebKit,Chrome,96.0.4664.110,Windows,10.0,ac0f2dffeffaa78d35a552e03d03f0a8
12,1,"""",pre-exp,instructions_block2,canvas-button-response,2,45168,0.0-2.0-0.0-0.0,3SD15I2WEBVYX2RZ7BNPTJHHA9P63F,A2FGKKWP33DFWS,34V1S5K3G12NZOD8EMT18GGRDM196O,3SV44,3SV44,34V1S5K3G12NZOD8EMT18GGRDM196O,34V1S5K3G12NZOD8EMT18GGRDM196O,338054,338054,1,0.03,"""",34375.299999952316,1,instructionStim1,1,Clockwise,true,"""","""","""","""","""","2021-12-31 03:30:01",192.145.117.242,"Mozilla/5.0 (Windows NT 10.0; Win64; x64) AppleWebKit/537.36 (KHTML, like Gecko) Chrome/96.0.4664.110 Safari/537.36",WebKit,Chrome,96.0.4664.110,Windows,10.0,ac0f2dffeffaa78d35a552e03d03f0a8
12,1,"""",pre-exp,instructions_block3,canvas-button-response,3,57381,0.0-3.0-0.0-0.0,3SD15I2WEBVYX2RZ7BNPTJHHA9P63F,A2FGKKWP33DFWS,34V1S5K3G12NZOD8EMT18GGRDM196O,3SV44,3SV44,34V1S5K3G12NZOD8EMT18GGRDM196O,34V1S5K3G12NZOD8EMT18GGRDM196O,338054,338054,1,0.03,"""",12129.700000047684,1,instructionStim2,0,Counter-clockwise,false,"""","""","""","""","""","2021-12-31 03:30:01",192.145.117.242,"Mozilla/5.0 (Windows NT 10.0; Win64; x64) AppleWebKit/537.36 (KHTML, like Gecko) Chrome/96.0.4664.110 Safari/537.36",WebKit,Chrome,96.0.4664.110,Windows,10.0,ac0f2dffeffaa78d35a552e03d03f0a8
12,1,"""",pre-exp,repeat_instructions_block3_message,html-button-response,4,60077,0.0-3.0-1.0-0.0,3SD15I2WEBVYX2RZ7BNPTJHHA9P63F,A2FGKKWP33DFWS,34V1S5K3G12NZOD8EMT18GGRDM196O,3SV44,3SV44,34V1S5K3G12NZOD8EMT18GGRDM196O,34V1S5K3G12NZOD8EMT18GGRDM196O,338054,338054,1,0.03,"""",2694.4000000953674,0,"<div id=""message-div""><p>You should have pressed the <b>""Counter-clockwise""</b> button.</p><p>Please try again.</p></div>","""","""","""","""","""","""","""","""","2021-12-31 03:30:01",192.145.117.242,"Mozilla/5.0 (Windows NT 10.0; Win64; x64) AppleWebKit/537.36 (KHTML, like Gecko) Chrome/96.0.4664.110 Safari/537.36",WebKit,Chrome,96.0.4664.110,Windows,10.0,ac0f2dffeffaa78d35a552e03d03f0a8
12,1,"""",pre-exp,instructions_block3,canvas-button-response,5,61531,0.0-3.1-0.1-0.1,3SD15I2WEBVYX2RZ7BNPTJHHA9P63F,A2FGKKWP33DFWS,34V1S5K3G12NZOD8EMT18GGRDM196O,3SV44,3SV44,34V1S5K3G12NZOD8EMT18GGRDM196O,34V1S5K3G12NZOD8EMT18GGRDM196O,338054,338054,1,0.03,"""",1365.2000000476837,0,instructionStim2,0,Counter-clockwise,true,"""","""","""","""","""","2021-12-31 03:30:01",192.145.117.242,"Mozilla/5.0 (Windows NT 10.0; Win64; x64) AppleWebKit/537.36 (KHTML, like Gecko) Chrome/96.0.4664.110 Safari/537.36",WebKit,Chrome,96.0.4664.110,Windows,10.0,ac0f2dffeffaa78d35a552e03d03f0a8
12,1,"""",pre-exp,instructions_block4,html-slider-response,6,76417,0.0-4.0,3SD15I2WEBVYX2RZ7BNPTJHHA9P63F,A2FGKKWP33DFWS,34V1S5K3G12NZOD8EMT18GGRDM196O,3SV44,3SV44,34V1S5K3G12NZOD8EMT18GGRDM196O,34V1S5K3G12NZOD8EMT18GGRDM196O,338054,338054,1,0.03,"""",14884,92,"<div id=""message-div""><p>After you have made your clockwise/counter-clockwise choice, <br>you will be asked to rate how confident you are that you were correct in your clockwise/counter-clockwise choice using a slide bar.<br>Please try to use the entire range of the slider bar.<br>For example, feel free to move the slider to the leftmost location if you are extremely uncertain about your choice, and the rightmost location if you are extremely certain.</p></div>","""","""","""",50,"""","""","""","""","2021-12-31 03:30:01",192.145.117.242,"Mozilla/5.0 (Windows NT 10.0; Win64; x64) AppleWebKit/537.36 (KHTML, like Gecko) Chrome/96.0.4664.110 Safari/537.36",WebKit,Chrome,96.0.4664.110,Windows,10.0,ac0f2dffeffaa78d35a552e03d03f0a8
12,1,"""",pre-exp,instructionspage5,instructions,7,82043,0.0-5.0-0.0,3SD15I2WEBVYX2RZ7BNPTJHHA9P63F,A2FGKKWP33DFWS,34V1S5K3G12NZOD8EMT18GGRDM196O,3SV44,3SV44,34V1S5K3G12NZOD8EMT18GGRDM196O,34V1S5K3G12NZOD8EMT18GGRDM196O,338054,338054,1,0.03,"[{""page_index"":0,""viewing_time"":5623.600000023842}]",5624,"""","""","""","""","""","""","""","""","""","""","2021-12-31 03:30:01",192.145.117.242,"Mozilla/5.0 (Windows NT 10.0; Win64; x64) AppleWebKit/537.36 (KHTML, like Gecko) Chrome/96.0.4664.110 Safari/537.36",WebKit,Chrome,96.0.4664.110,Windows,10.0,ac0f2dffeffaa78d35a552e03d03f0a8
12,1,"""",pre-exp,instructionspage6,instructions,8,85351,0.0-6.0-0.0,3SD15I2WEBVYX2RZ7BNPTJHHA9P63F,A2FGKKWP33DFWS,34V1S5K3G12NZOD8EMT18GGRDM196O,3SV44,3SV44,34V1S5K3G12NZOD8EMT18GGRDM196O,34V1S5K3G12NZOD8EMT18GGRDM196O,338054,338054,1,0.03,"[{""page_index"":0,""viewing_time"":3306.7999999523163}]",3307,"""","""","""","""","""","""","""","""","""","""","2021-12-31 03:30:01",192.145.117.242,"Mozilla/5.0 (Windows NT 10.0; Win64; x64) AppleWebKit/537.36 (KHTML, like Gecko) Chrome/96.0.4664.110 Safari/537.36",WebKit,Chrome,96.0.4664.110,Windows,10.0,ac0f2dffeffaa78d35a552e03d03f0a8
12,1,"""",pre-exp,instructionspage7,instructions,9,90315,0.0-7.0-0.0,3SD15I2WEBVYX2RZ7BNPTJHHA9P63F,A2FGKKWP33DFWS,34V1S5K3G12NZOD8EMT18GGRDM196O,3SV44,3SV44,34V1S5K3G12NZOD8EMT18GGRDM196O,34V1S5K3G12NZOD8EMT18GGRDM196O,338054,338054,1,0.03,"[{""page_index"":0,""viewing_time"":4961.699999928474}]",4961.899999976158,"""","""","""","""","""","""","""","""","""","""","2021-12-31 03:30:01",192.145.117.242,"Mozilla/5.0 (Windows NT 10.0; Win64; x64) AppleWebKit/537.36 (KHTML, like Gecko) Chrome/96.0.4664.110 Safari/537.36",WebKit,Chrome,96.0.4664.110,Windows,10.0,ac0f2dffeffaa78d35a552e03d03f0a8
12,1,"""",pre-exp,instructionspage8,instructions,10,92835,0.0-8.0-0.0,3SD15I2WEBVYX2RZ7BNPTJHHA9P63F,A2FGKKWP33DFWS,34V1S5K3G12NZOD8EMT18GGRDM196O,3SV44,3SV44,34V1S5K3G12NZOD8EMT18GGRDM196O,34V1S5K3G12NZOD8EMT18GGRDM196O,338054,338054,1,0.03,"[{""page_index"":0,""viewing_time"":2519.100000023842}]",2519.4000000953674,"""","""","""","""","""","""","""","""","""","""","2021-12-31 03:30:01",192.145.117.242,"Mozilla/5.0 (Windows NT 10.0; Win64; x64) AppleWebKit/537.36 (KHTML, like Gecko) Chrome/96.0.4664.110 Safari/537.36",WebKit,Chrome,96.0.4664.110,Windows,10.0,ac0f2dffeffaa78d35a552e03d03f0a8
12,1,"""",practice_procedure,fixation,html-keyboard-response,11,93339,0.0-9.0-0.0-0.0,3SD15I2WEBVYX2RZ7BNPTJHHA9P63F,A2FGKKWP33DFWS,34V1S5K3G12NZOD8EMT18GGRDM196O,3SV44,3SV44,34V1S5K3G12NZOD8EMT18GGRDM196O,34V1S5K3G12NZOD8EMT18GGRDM196O,338054,338054,1,0.03,"""",null,null,"<div class = fixationbox><div class = fixation>+</div></div>","""","""","""","""","""","""","""","""","2021-12-31 03:30:01",192.145.117.242,"Mozilla/5.0 (Windows NT 10.0; Win64; x64) AppleWebKit/537.36 (KHTML, like Gecko) Chrome/96.0.4664.110 Safari/537.36",WebKit,Chrome,96.0.4664.110,Windows,10.0,ac0f2dffeffaa78d35a552e03d03f0a8
12,1,"""",practice_procedure,stim_practice,canvas-button-response,12,97085,0.0-9.0-0.0-1.0,3SD15I2WEBVYX2RZ7BNPTJHHA9P63F,A2FGKKWP33DFWS,34V1S5K3G12NZOD8EMT18GGRDM196O,3SV44,3SV44,34V1S5K3G12NZOD8EMT18GGRDM196O,34V1S5K3G12NZOD8EMT18GGRDM196O,338054,338054,1,0.03,"""",3687,1,practiceStim3,1,Clockwise,true,"""",0.3,60,0.99,"""","2021-12-31 03:30:01",192.145.117.242,"Mozilla/5.0 (Windows NT 10.0; Win64; x64) AppleWebKit/537.36 (KHTML, like Gecko) Chrome/96.0.4664.110 Safari/537.36",WebKit,Chrome,96.0.4664.110,Windows,10.0,ac0f2dffeffaa78d35a552e03d03f0a8
12,1,"""",practice_procedure,confidence_rating,html-slider-response,13,102215,0.0-9.0-0.0-2.0,3SD15I2WEBVYX2RZ7BNPTJHHA9P63F,A2FGKKWP33DFWS,34V1S5K3G12NZOD8EMT18GGRDM196O,3SV44,3SV44,34V1S5K3G12NZOD8EMT18GGRDM196O,34V1S5K3G12NZOD8EMT18GGRDM196O,338054,338054,1,0.03,"""",5128.5,100,"<div id=""message-div""><p>How confident are you that your clockwise/counter-clockwise response just now was accurate? Please rate your confidence on the slider bar below.</p></div>","""","""","""",50,"""","""","""",100,"2021-12-31 03:30:01",192.145.117.242,"Mozilla/5.0 (Windows NT 10.0; Win64; x64) AppleWebKit/537.36 (KHTML, like Gecko) Chrome/96.0.4664.110 Safari/537.36",WebKit,Chrome,96.0.4664.110,Windows,10.0,ac0f2dffeffaa78d35a552e03d03f0a8
12,1,"""",practice_procedure,fixation,html-keyboard-response,14,102719,0.0-9.0-0.0-0.1,3SD15I2WEBVYX2RZ7BNPTJHHA9P63F,A2FGKKWP33DFWS,34V1S5K3G12NZOD8EMT18GGRDM196O,3SV44,3SV44,34V1S5K3G12NZOD8EMT18GGRDM196O,34V1S5K3G12NZOD8EMT18GGRDM196O,338054,338054,1,0.03,"""",null,null,"<div class = fixationbox><div class = fixation>+</div></div>","""","""","""","""","""","""","""","""","2021-12-31 03:30:01",192.145.117.242,"Mozilla/5.0 (Windows NT 10.0; Win64; x64) AppleWebKit/537.36 (KHTML, like Gecko) Chrome/96.0.4664.110 Safari/537.36",WebKit,Chrome,96.0.4664.110,Windows,10.0,ac0f2dffeffaa78d35a552e03d03f0a8
12,1,"""",practice_procedure,stim_practice,canvas-button-response,15,108227,0.0-9.0-0.0-1.1,3SD15I2WEBVYX2RZ7BNPTJHHA9P63F,A2FGKKWP33DFWS,34V1S5K3G12NZOD8EMT18GGRDM196O,3SV44,3SV44,34V1S5K3G12NZOD8EMT18GGRDM196O,34V1S5K3G12NZOD8EMT18GGRDM196O,338054,338054,1,0.03,"""",5456,1,practiceStim1,1,Clockwise,true,"""",0.01,60,0.99,"""","2021-12-31 03:30:01",192.145.117.242,"Mozilla/5.0 (Windows NT 10.0; Win64; x64) AppleWebKit/537.36 (KHTML, like Gecko) Chrome/96.0.4664.110 Safari/537.36",WebKit,Chrome,96.0.4664.110,Windows,10.0,ac0f2dffeffaa78d35a552e03d03f0a8
12,1,"""",practice_procedure,confidence_rating,html-slider-response,16,111269,0.0-9.0-0.0-2.1,3SD15I2WEBVYX2RZ7BNPTJHHA9P63F,A2FGKKWP33DFWS,34V1S5K3G12NZOD8EMT18GGRDM196O,3SV44,3SV44,34V1S5K3G12NZOD8EMT18GGRDM196O,34V1S5K3G12NZOD8EMT18GGRDM196O,338054,338054,1,0.03,"""",3039.2999999523163,100,"<div id=""message-div""><p>How confident are you that your clockwise/counter-clockwise response just now was accurate? Please rate your confidence on the slider bar below.</p></div>","""","""","""",50,"""","""","""",100,"2021-12-31 03:30:01",192.145.117.242,"Mozilla/5.0 (Windows NT 10.0; Win64; x64) AppleWebKit/537.36 (KHTML, like Gecko) Chrome/96.0.4664.110 Safari/537.36",WebKit,Chrome,96.0.4664.110,Windows,10.0,ac0f2dffeffaa78d35a552e03d03f0a8
12,1,"""",practice_procedure,fixation,html-keyboard-response,17,111772,0.0-9.0-0.0-0.2,3SD15I2WEBVYX2RZ7BNPTJHHA9P63F,A2FGKKWP33DFWS,34V1S5K3G12NZOD8EMT18GGRDM196O,3SV44,3SV44,34V1S5K3G12NZOD8EMT18GGRDM196O,34V1S5K3G12NZOD8EMT18GGRDM196O,338054,338054,1,0.03,"""",null,null,"<div class = fixationbox><div class = fixation>+</div></div>","""","""","""","""","""","""","""","""","2021-12-31 03:30:01",192.145.117.242,"Mozilla/5.0 (Windows NT 10.0; Win64; x64) AppleWebKit/537.36 (KHTML, like Gecko) Chrome/96.0.4664.110 Safari/537.36",WebKit,Chrome,96.0.4664.110,Windows,10.0,ac0f2dffeffaa78d35a552e03d03f0a8
12,1,"""",practice_procedure,stim_practice,canvas-button-response,18,121411,0.0-9.0-0.0-1.2,3SD15I2WEBVYX2RZ7BNPTJHHA9P63F,A2FGKKWP33DFWS,34V1S5K3G12NZOD8EMT18GGRDM196O,3SV44,3SV44,34V1S5K3G12NZOD8EMT18GGRDM196O,34V1S5K3G12NZOD8EMT18GGRDM196O,338054,338054,1,0.03,"""",9588.5,1,practiceStim3,1,Clockwise,true,"""",0.3,60,0.99,"""","2021-12-31 03:30:01",192.145.117.242,"Mozilla/5.0 (Windows NT 10.0; Win64; x64) AppleWebKit/537.36 (KHTML, like Gecko) Chrome/96.0.4664.110 Safari/537.36",WebKit,Chrome,96.0.4664.110,Windows,10.0,ac0f2dffeffaa78d35a552e03d03f0a8
12,1,"""",practice_procedure,confidence_rating,html-slider-response,19,123809,0.0-9.0-0.0-2.2,3SD15I2WEBVYX2RZ7BNPTJHHA9P63F,A2FGKKWP33DFWS,34V1S5K3G12NZOD8EMT18GGRDM196O,3SV44,3SV44,34V1S5K3G12NZOD8EMT18GGRDM196O,34V1S5K3G12NZOD8EMT18GGRDM196O,338054,338054,1,0.03,"""",2395,96,"<div id=""message-div""><p>How confident are you that your clockwise/counter-clockwise response just now was accurate? Please rate your confidence on the slider bar below.</p></div>","""","""","""",50,"""","""","""",96,"2021-12-31 03:30:01",192.145.117.242,"Mozilla/5.0 (Windows NT 10.0; Win64; x64) AppleWebKit/537.36 (KHTML, like Gecko) Chrome/96.0.4664.110 Safari/537.36",WebKit,Chrome,96.0.4664.110,Windows,10.0,ac0f2dffeffaa78d35a552e03d03f0a8
12,1,"""",practice_procedure,fixation,html-keyboard-response,20,124310,0.0-9.0-0.0-0.3,3SD15I2WEBVYX2RZ7BNPTJHHA9P63F,A2FGKKWP33DFWS,34V1S5K3G12NZOD8EMT18GGRDM196O,3SV44,3SV44,34V1S5K3G12NZOD8EMT18GGRDM196O,34V1S5K3G12NZOD8EMT18GGRDM196O,338054,338054,1,0.03,"""",null,null,"<div class = fixationbox><div class = fixation>+</div></div>","""","""","""","""","""","""","""","""","2021-12-31 03:30:01",192.145.117.242,"Mozilla/5.0 (Windows NT 10.0; Win64; x64) AppleWebKit/537.36 (KHTML, like Gecko) Chrome/96.0.4664.110 Safari/537.36",WebKit,Chrome,96.0.4664.110,Windows,10.0,ac0f2dffeffaa78d35a552e03d03f0a8
12,1,"""",practice_procedure,stim_practice,canvas-button-response,21,126375,0.0-9.0-0.0-1.3,3SD15I2WEBVYX2RZ7BNPTJHHA9P63F,A2FGKKWP33DFWS,34V1S5K3G12NZOD8EMT18GGRDM196O,3SV44,3SV44,34V1S5K3G12NZOD8EMT18GGRDM196O,34V1S5K3G12NZOD8EMT18GGRDM196O,338054,338054,1,0.03,"""",2015,1,practiceStim3,1,Clockwise,true,"""",0.3,60,0.99,"""","2021-12-31 03:30:01",192.145.117.242,"Mozilla/5.0 (Windows NT 10.0; Win64; x64) AppleWebKit/537.36 (KHTML, like Gecko) Chrome/96.0.4664.110 Safari/537.36",WebKit,Chrome,96.0.4664.110,Windows,10.0,ac0f2dffeffaa78d35a552e03d03f0a8
12,1,"""",practice_procedure,confidence_rating,html-slider-response,22,128699,0.0-9.0-0.0-2.3,3SD15I2WEBVYX2RZ7BNPTJHHA9P63F,A2FGKKWP33DFWS,34V1S5K3G12NZOD8EMT18GGRDM196O,3SV44,3SV44,34V1S5K3G12NZOD8EMT18GGRDM196O,34V1S5K3G12NZOD8EMT18GGRDM196O,338054,338054,1,0.03,"""",2322.8000000715256,97,"<div id=""message-div""><p>How confident are you that your clockwise/counter-clockwise response just now was accurate? Please rate your confidence on the slider bar below.</p></div>","""","""","""",50,"""","""","""",97,"2021-12-31 03:30:01",192.145.117.242,"Mozilla/5.0 (Windows NT 10.0; Win64; x64) AppleWebKit/537.36 (KHTML, like Gecko) Chrome/96.0.4664.110 Safari/537.36",WebKit,Chrome,96.0.4664.110,Windows,10.0,ac0f2dffeffaa78d35a552e03d03f0a8
12,1,"""",practice_procedure,fixation,html-keyboard-response,23,129202,0.0-9.0-0.0-0.4,3SD15I2WEBVYX2RZ7BNPTJHHA9P63F,A2FGKKWP33DFWS,34V1S5K3G12NZOD8EMT18GGRDM196O,3SV44,3SV44,34V1S5K3G12NZOD8EMT18GGRDM196O,34V1S5K3G12NZOD8EMT18GGRDM196O,338054,338054,1,0.03,"""",null,null,"<div class = fixationbox><div class = fixation>+</div></div>","""","""","""","""","""","""","""","""","2021-12-31 03:30:01",192.145.117.242,"Mozilla/5.0 (Windows NT 10.0; Win64; x64) AppleWebKit/537.36 (KHTML, like Gecko) Chrome/96.0.4664.110 Safari/537.36",WebKit,Chrome,96.0.4664.110,Windows,10.0,ac0f2dffeffaa78d35a552e03d03f0a8
12,1,"""",practice_procedure,stim_practice,canvas-button-response,24,136166,0.0-9.0-0.0-1.4,3SD15I2WEBVYX2RZ7BNPTJHHA9P63F,A2FGKKWP33DFWS,34V1S5K3G12NZOD8EMT18GGRDM196O,3SV44,3SV44,34V1S5K3G12NZOD8EMT18GGRDM196O,34V1S5K3G12NZOD8EMT18GGRDM196O,338054,338054,1,0.03,"""",6918.300000071526,1,practiceStim3,1,Clockwise,true,"""",0.3,60,0.99,"""","2021-12-31 03:30:01",192.145.117.242,"Mozilla/5.0 (Windows NT 10.0; Win64; x64) AppleWebKit/537.36 (KHTML, like Gecko) Chrome/96.0.4664.110 Safari/537.36",WebKit,Chrome,96.0.4664.110,Windows,10.0,ac0f2dffeffaa78d35a552e03d03f0a8
12,1,"""",practice_procedure,confidence_rating,html-slider-response,25,138461,0.0-9.0-0.0-2.4,3SD15I2WEBVYX2RZ7BNPTJHHA9P63F,A2FGKKWP33DFWS,34V1S5K3G12NZOD8EMT18GGRDM196O,3SV44,3SV44,34V1S5K3G12NZOD8EMT18GGRDM196O,34V1S5K3G12NZOD8EMT18GGRDM196O,338054,338054,1,0.03,"""",2292.2000000476837,100,"<div id=""message-div""><p>How confident are you that your clockwise/counter-clockwise response just now was accurate? Please rate your confidence on the slider bar below.</p></div>","""","""","""",50,"""","""","""",100,"2021-12-31 03:30:01",192.145.117.242,"Mozilla/5.0 (Windows NT 10.0; Win64; x64) AppleWebKit/537.36 (KHTML, like Gecko) Chrome/96.0.4664.110 Safari/537.36",WebKit,Chrome,96.0.4664.110,Windows,10.0,ac0f2dffeffaa78d35a552e03d03f0a8
12,1,"""",practice_procedure,fixation,html-keyboard-response,26,138962,0.0-9.0-0.0-0.5,3SD15I2WEBVYX2RZ7BNPTJHHA9P63F,A2FGKKWP33DFWS,34V1S5K3G12NZOD8EMT18GGRDM196O,3SV44,3SV44,34V1S5K3G12NZOD8EMT18GGRDM196O,34V1S5K3G12NZOD8EMT18GGRDM196O,338054,338054,1,0.03,"""",null,null,"<div class = fixationbox><div class = fixation>+</div></div>","""","""","""","""","""","""","""","""","2021-12-31 03:30:01",192.145.117.242,"Mozilla/5.0 (Windows NT 10.0; Win64; x64) AppleWebKit/537.36 (KHTML, like Gecko) Chrome/96.0.4664.110 Safari/537.36",WebKit,Chrome,96.0.4664.110,Windows,10.0,ac0f2dffeffaa78d35a552e03d03f0a8
12,1,"""",practice_procedure,stim_practice,canvas-button-response,27,140813,0.0-9.0-0.0-1.5,3SD15I2WEBVYX2RZ7BNPTJHHA9P63F,A2FGKKWP33DFWS,34V1S5K3G12NZOD8EMT18GGRDM196O,3SV44,3SV44,34V1S5K3G12NZOD8EMT18GGRDM196O,34V1S5K3G12NZOD8EMT18GGRDM196O,338054,338054,1,0.03,"""",1805.8000000715256,1,practiceStim1,1,Clockwise,true,"""",0.01,60,0.99,"""","2021-12-31 03:30:01",192.145.117.242,"Mozilla/5.0 (Windows NT 10.0; Win64; x64) AppleWebKit/537.36 (KHTML, like Gecko) Chrome/96.0.4664.110 Safari/537.36",WebKit,Chrome,96.0.4664.110,Windows,10.0,ac0f2dffeffaa78d35a552e03d03f0a8
12,1,"""",practice_procedure,confidence_rating,html-slider-response,28,142783,0.0-9.0-0.0-2.5,3SD15I2WEBVYX2RZ7BNPTJHHA9P63F,A2FGKKWP33DFWS,34V1S5K3G12NZOD8EMT18GGRDM196O,3SV44,3SV44,34V1S5K3G12NZOD8EMT18GGRDM196O,34V1S5K3G12NZOD8EMT18GGRDM196O,338054,338054,1,0.03,"""",1968.6000000238419,95,"<div id=""message-div""><p>How confident are you that your clockwise/counter-clockwise response just now was accurate? Please rate your confidence on the slider bar below.</p></div>","""","""","""",50,"""","""","""",95,"2021-12-31 03:30:01",192.145.117.242,"Mozilla/5.0 (Windows NT 10.0; Win64; x64) AppleWebKit/537.36 (KHTML, like Gecko) Chrome/96.0.4664.110 Safari/537.36",WebKit,Chrome,96.0.4664.110,Windows,10.0,ac0f2dffeffaa78d35a552e03d03f0a8
12,1,"""",practice_procedure,fixation,html-keyboard-response,29,143285,0.0-9.0-0.0-0.6,3SD15I2WEBVYX2RZ7BNPTJHHA9P63F,A2FGKKWP33DFWS,34V1S5K3G12NZOD8EMT18GGRDM196O,3SV44,3SV44,34V1S5K3G12NZOD8EMT18GGRDM196O,34V1S5K3G12NZOD8EMT18GGRDM196O,338054,338054,1,0.03,"""",null,null,"<div class = fixationbox><div class = fixation>+</div></div>","""","""","""","""","""","""","""","""","2021-12-31 03:30:01",192.145.117.242,"Mozilla/5.0 (Windows NT 10.0; Win64; x64) AppleWebKit/537.36 (KHTML, like Gecko) Chrome/96.0.4664.110 Safari/537.36",WebKit,Chrome,96.0.4664.110,Windows,10.0,ac0f2dffeffaa78d35a552e03d03f0a8
12,1,"""",practice_procedure,stim_practice,canvas-button-response,30,145389,0.0-9.0-0.0-1.6,3SD15I2WEBVYX2RZ7BNPTJHHA9P63F,A2FGKKWP33DFWS,34V1S5K3G12NZOD8EMT18GGRDM196O,3SV44,3SV44,34V1S5K3G12NZOD8EMT18GGRDM196O,34V1S5K3G12NZOD8EMT18GGRDM196O,338054,338054,1,0.03,"""",2063.399999976158,0,practiceStim2,0,Counter-clockwise,true,"""",0.01,120,0.99,"""","2021-12-31 03:30:01",192.145.117.242,"Mozilla/5.0 (Windows NT 10.0; Win64; x64) AppleWebKit/537.36 (KHTML, like Gecko) Chrome/96.0.4664.110 Safari/537.36",WebKit,Chrome,96.0.4664.110,Windows,10.0,ac0f2dffeffaa78d35a552e03d03f0a8
12,1,"""",practice_procedure,confidence_rating,html-slider-response,31,148447,0.0-9.0-0.0-2.6,3SD15I2WEBVYX2RZ7BNPTJHHA9P63F,A2FGKKWP33DFWS,34V1S5K3G12NZOD8EMT18GGRDM196O,3SV44,3SV44,34V1S5K3G12NZOD8EMT18GGRDM196O,34V1S5K3G12NZOD8EMT18GGRDM196O,338054,338054,1,0.03,"""",3056.7999999523163,94,"<div id=""message-div""><p>How confident are you that your clockwise/counter-clockwise response just now was accurate? Please rate your confidence on the slider bar below.</p></div>","""","""","""",50,"""","""","""",94,"2021-12-31 03:30:01",192.145.117.242,"Mozilla/5.0 (Windows NT 10.0; Win64; x64) AppleWebKit/537.36 (KHTML, like Gecko) Chrome/96.0.4664.110 Safari/537.36",WebKit,Chrome,96.0.4664.110,Windows,10.0,ac0f2dffeffaa78d35a552e03d03f0a8
12,1,"""",practice_procedure,fixation,html-keyboard-response,32,148949,0.0-9.0-0.0-0.7,3SD15I2WEBVYX2RZ7BNPTJHHA9P63F,A2FGKKWP33DFWS,34V1S5K3G12NZOD8EMT18GGRDM196O,3SV44,3SV44,34V1S5K3G12NZOD8EMT18GGRDM196O,34V1S5K3G12NZOD8EMT18GGRDM196O,338054,338054,1,0.03,"""",null,null,"<div class = fixationbox><div class = fixation>+</div></div>","""","""","""","""","""","""","""","""","2021-12-31 03:30:01",192.145.117.242,"Mozilla/5.0 (Windows NT 10.0; Win64; x64) AppleWebKit/537.36 (KHTML, like Gecko) Chrome/96.0.4664.110 Safari/537.36",WebKit,Chrome,96.0.4664.110,Windows,10.0,ac0f2dffeffaa78d35a552e03d03f0a8
12,1,"""",practice_procedure,stim_practice,canvas-button-response,33,150629,0.0-9.0-0.0-1.7,3SD15I2WEBVYX2RZ7BNPTJHHA9P63F,A2FGKKWP33DFWS,34V1S5K3G12NZOD8EMT18GGRDM196O,3SV44,3SV44,34V1S5K3G12NZOD8EMT18GGRDM196O,34V1S5K3G12NZOD8EMT18GGRDM196O,338054,338054,1,0.03,"""",1636.8000000715256,0,practiceStim4,0,Counter-clockwise,true,"""",0.3,120,0.99,"""","2021-12-31 03:30:01",192.145.117.242,"Mozilla/5.0 (Windows NT 10.0; Win64; x64) AppleWebKit/537.36 (KHTML, like Gecko) Chrome/96.0.4664.110 Safari/537.36",WebKit,Chrome,96.0.4664.110,Windows,10.0,ac0f2dffeffaa78d35a552e03d03f0a8
12,1,"""",practice_procedure,confidence_rating,html-slider-response,34,153015,0.0-9.0-0.0-2.7,3SD15I2WEBVYX2RZ7BNPTJHHA9P63F,A2FGKKWP33DFWS,34V1S5K3G12NZOD8EMT18GGRDM196O,3SV44,3SV44,34V1S5K3G12NZOD8EMT18GGRDM196O,34V1S5K3G12NZOD8EMT18GGRDM196O,338054,338054,1,0.03,"""",2384.7999999523163,96,"<div id=""message-div""><p>How confident are you that your clockwise/counter-clockwise response just now was accurate? Please rate your confidence on the slider bar below.</p></div>","""","""","""",50,"""","""","""",96,"2021-12-31 03:30:01",192.145.117.242,"Mozilla/5.0 (Windows NT 10.0; Win64; x64) AppleWebKit/537.36 (KHTML, like Gecko) Chrome/96.0.4664.110 Safari/537.36",WebKit,Chrome,96.0.4664.110,Windows,10.0,ac0f2dffeffaa78d35a552e03d03f0a8
12,1,"""",practice_procedure,fixation,html-keyboard-response,35,153516,0.0-9.0-0.0-0.8,3SD15I2WEBVYX2RZ7BNPTJHHA9P63F,A2FGKKWP33DFWS,34V1S5K3G12NZOD8EMT18GGRDM196O,3SV44,3SV44,34V1S5K3G12NZOD8EMT18GGRDM196O,34V1S5K3G12NZOD8EMT18GGRDM196O,338054,338054,1,0.03,"""",null,null,"<div class = fixationbox><div class = fixation>+</div></div>","""","""","""","""","""","""","""","""","2021-12-31 03:30:01",192.145.117.242,"Mozilla/5.0 (Windows NT 10.0; Win64; x64) AppleWebKit/537.36 (KHTML, like Gecko) Chrome/96.0.4664.110 Safari/537.36",WebKit,Chrome,96.0.4664.110,Windows,10.0,ac0f2dffeffaa78d35a552e03d03f0a8
12,1,"""",practice_procedure,stim_practice,canvas-button-response,36,155455,0.0-9.0-0.0-1.8,3SD15I2WEBVYX2RZ7BNPTJHHA9P63F,A2FGKKWP33DFWS,34V1S5K3G12NZOD8EMT18GGRDM196O,3SV44,3SV44,34V1S5K3G12NZOD8EMT18GGRDM196O,34V1S5K3G12NZOD8EMT18GGRDM196O,338054,338054,1,0.03,"""",1898.8999999761581,0,practiceStim4,0,Counter-clockwise,true,"""",0.3,120,0.99,"""","2021-12-31 03:30:01",192.145.117.242,"Mozilla/5.0 (Windows NT 10.0; Win64; x64) AppleWebKit/537.36 (KHTML, like Gecko) Chrome/96.0.4664.110 Safari/537.36",WebKit,Chrome,96.0.4664.110,Windows,10.0,ac0f2dffeffaa78d35a552e03d03f0a8
12,1,"""",practice_procedure,confidence_rating,html-slider-response,37,158267,0.0-9.0-0.0-2.8,3SD15I2WEBVYX2RZ7BNPTJHHA9P63F,A2FGKKWP33DFWS,34V1S5K3G12NZOD8EMT18GGRDM196O,3SV44,3SV44,34V1S5K3G12NZOD8EMT18GGRDM196O,34V1S5K3G12NZOD8EMT18GGRDM196O,338054,338054,1,0.03,"""",2809.2999999523163,96,"<div id=""message-div""><p>How confident are you that your clockwise/counter-clockwise response just now was accurate? Please rate your confidence on the slider bar below.</p></div>","""","""","""",50,"""","""","""",96,"2021-12-31 03:30:01",192.145.117.242,"Mozilla/5.0 (Windows NT 10.0; Win64; x64) AppleWebKit/537.36 (KHTML, like Gecko) Chrome/96.0.4664.110 Safari/537.36",WebKit,Chrome,96.0.4664.110,Windows,10.0,ac0f2dffeffaa78d35a552e03d03f0a8
12,1,"""",practice_procedure,fixation,html-keyboard-response,38,158769,0.0-9.0-0.0-0.9,3SD15I2WEBVYX2RZ7BNPTJHHA9P63F,A2FGKKWP33DFWS,34V1S5K3G12NZOD8EMT18GGRDM196O,3SV44,3SV44,34V1S5K3G12NZOD8EMT18GGRDM196O,34V1S5K3G12NZOD8EMT18GGRDM196O,338054,338054,1,0.03,"""",null,null,"<div class = fixationbox><div class = fixation>+</div></div>","""","""","""","""","""","""","""","""","2021-12-31 03:30:01",192.145.117.242,"Mozilla/5.0 (Windows NT 10.0; Win64; x64) AppleWebKit/537.36 (KHTML, like Gecko) Chrome/96.0.4664.110 Safari/537.36",WebKit,Chrome,96.0.4664.110,Windows,10.0,ac0f2dffeffaa78d35a552e03d03f0a8
12,1,"""",practice_procedure,stim_practice,canvas-button-response,39,162255,0.0-9.0-0.0-1.9,3SD15I2WEBVYX2RZ7BNPTJHHA9P63F,A2FGKKWP33DFWS,34V1S5K3G12NZOD8EMT18GGRDM196O,3SV44,3SV44,34V1S5K3G12NZOD8EMT18GGRDM196O,34V1S5K3G12NZOD8EMT18GGRDM196O,338054,338054,1,0.03,"""",3444.399999976158,1,practiceStim1,1,Clockwise,true,"""",0.01,60,0.99,"""","2021-12-31 03:30:01",192.145.117.242,"Mozilla/5.0 (Windows NT 10.0; Win64; x64) AppleWebKit/537.36 (KHTML, like Gecko) Chrome/96.0.4664.110 Safari/537.36",WebKit,Chrome,96.0.4664.110,Windows,10.0,ac0f2dffeffaa78d35a552e03d03f0a8
12,1,"""",practice_procedure,confidence_rating,html-slider-response,40,164635,0.0-9.0-0.0-2.9,3SD15I2WEBVYX2RZ7BNPTJHHA9P63F,A2FGKKWP33DFWS,34V1S5K3G12NZOD8EMT18GGRDM196O,3SV44,3SV44,34V1S5K3G12NZOD8EMT18GGRDM196O,34V1S5K3G12NZOD8EMT18GGRDM196O,338054,338054,1,0.03,"""",2376.6999999284744,99,"<div id=""message-div""><p>How confident are you that your clockwise/counter-clockwise response just now was accurate? Please rate your confidence on the slider bar below.</p></div>","""","""","""",50,"""","""","""",99,"2021-12-31 03:30:01",192.145.117.242,"Mozilla/5.0 (Windows NT 10.0; Win64; x64) AppleWebKit/537.36 (KHTML, like Gecko) Chrome/96.0.4664.110 Safari/537.36",WebKit,Chrome,96.0.4664.110,Windows,10.0,ac0f2dffeffaa78d35a552e03d03f0a8
12,1,"""",pre-test,test_instruction,instructions,41,173511,0.0-10.0,3SD15I2WEBVYX2RZ7BNPTJHHA9P63F,A2FGKKWP33DFWS,34V1S5K3G12NZOD8EMT18GGRDM196O,3SV44,3SV44,34V1S5K3G12NZOD8EMT18GGRDM196O,34V1S5K3G12NZOD8EMT18GGRDM196O,338054,338054,1,0.03,"[{""page_index"":0,""viewing_time"":8874}]",8874.300000071526,"""","""","""","""","""","""","""","""","""","""","2021-12-31 03:30:01",192.145.117.242,"Mozilla/5.0 (Windows NT 10.0; Win64; x64) AppleWebKit/537.36 (KHTML, like Gecko) Chrome/96.0.4664.110 Safari/537.36",WebKit,Chrome,96.0.4664.110,Windows,10.0,ac0f2dffeffaa78d35a552e03d03f0a8
12,1,"""",test_procedure,fixation,html-keyboard-response,42,174014,0.0-11.0-0.0-0.0,3SD15I2WEBVYX2RZ7BNPTJHHA9P63F,A2FGKKWP33DFWS,34V1S5K3G12NZOD8EMT18GGRDM196O,3SV44,3SV44,34V1S5K3G12NZOD8EMT18GGRDM196O,34V1S5K3G12NZOD8EMT18GGRDM196O,338054,338054,1,0.03,"""",null,null,"<div class = fixationbox><div class = fixation>+</div></div>","""","""","""","""","""","""","""","""","2021-12-31 03:30:01",192.145.117.242,"Mozilla/5.0 (Windows NT 10.0; Win64; x64) AppleWebKit/537.36 (KHTML, like Gecko) Chrome/96.0.4664.110 Safari/537.36",WebKit,Chrome,96.0.4664.110,Windows,10.0,ac0f2dffeffaa78d35a552e03d03f0a8
12,1,"""",test_procedure,stim_test,canvas-button-response,43,179627,0.0-11.0-0.0-1.0,3SD15I2WEBVYX2RZ7BNPTJHHA9P63F,A2FGKKWP33DFWS,34V1S5K3G12NZOD8EMT18GGRDM196O,3SV44,3SV44,34V1S5K3G12NZOD8EMT18GGRDM196O,34V1S5K3G12NZOD8EMT18GGRDM196O,338054,338054,1,0.03,"""",5564,1,stim1,1,Clockwise,true,"""",0.01,60,"""","""","2021-12-31 03:30:01",192.145.117.242,"Mozilla/5.0 (Windows NT 10.0; Win64; x64) AppleWebKit/537.36 (KHTML, like Gecko) Chrome/96.0.4664.110 Safari/537.36",WebKit,Chrome,96.0.4664.110,Windows,10.0,ac0f2dffeffaa78d35a552e03d03f0a8
12,1,"""",test_procedure,confidence_rating,html-slider-response,44,183059,0.0-11.0-0.0-2.0,3SD15I2WEBVYX2RZ7BNPTJHHA9P63F,A2FGKKWP33DFWS,34V1S5K3G12NZOD8EMT18GGRDM196O,3SV44,3SV44,34V1S5K3G12NZOD8EMT18GGRDM196O,34V1S5K3G12NZOD8EMT18GGRDM196O,338054,338054,1,0.03,"""",3429.100000023842,50,"<div id=""message-div""><p>How confident are you that your clockwise/counter-clockwise response just now was accurate? Please rate your confidence on the slider bar below.</p></div>","""","""","""",50,"""","""","""",50,"2021-12-31 03:30:01",192.145.117.242,"Mozilla/5.0 (Windows NT 10.0; Win64; x64) AppleWebKit/537.36 (KHTML, like Gecko) Chrome/96.0.4664.110 Safari/537.36",WebKit,Chrome,96.0.4664.110,Windows,10.0,ac0f2dffeffaa78d35a552e03d03f0a8
12,1,"""",test_procedure,fixation,html-keyboard-response,45,183560,0.0-11.0-0.0-0.1,3SD15I2WEBVYX2RZ7BNPTJHHA9P63F,A2FGKKWP33DFWS,34V1S5K3G12NZOD8EMT18GGRDM196O,3SV44,3SV44,34V1S5K3G12NZOD8EMT18GGRDM196O,34V1S5K3G12NZOD8EMT18GGRDM196O,338054,338054,1,0.03,"""",null,null,"<div class = fixationbox><div class = fixation>+</div></div>","""","""","""","""","""","""","""","""","2021-12-31 03:30:01",192.145.117.242,"Mozilla/5.0 (Windows NT 10.0; Win64; x64) AppleWebKit/537.36 (KHTML, like Gecko) Chrome/96.0.4664.110 Safari/537.36",WebKit,Chrome,96.0.4664.110,Windows,10.0,ac0f2dffeffaa78d35a552e03d03f0a8
12,1,"""",test_procedure,stim_test,canvas-button-response,46,188903,0.0-11.0-0.0-1.1,3SD15I2WEBVYX2RZ7BNPTJHHA9P63F,A2FGKKWP33DFWS,34V1S5K3G12NZOD8EMT18GGRDM196O,3SV44,3SV44,34V1S5K3G12NZOD8EMT18GGRDM196O,34V1S5K3G12NZOD8EMT18GGRDM196O,338054,338054,1,0.03,"""",5295.599999904633,1,stim4,0,Counter-clockwise,false,"""",0.3,120,"""","""","2021-12-31 03:30:01",192.145.117.242,"Mozilla/5.0 (Windows NT 10.0; Win64; x64) AppleWebKit/537.36 (KHTML, like Gecko) Chrome/96.0.4664.110 Safari/537.36",WebKit,Chrome,96.0.4664.110,Windows,10.0,ac0f2dffeffaa78d35a552e03d03f0a8
12,1,"""",test_procedure,confidence_rating,html-slider-response,47,191219,0.0-11.0-0.0-2.1,3SD15I2WEBVYX2RZ7BNPTJHHA9P63F,A2FGKKWP33DFWS,34V1S5K3G12NZOD8EMT18GGRDM196O,3SV44,3SV44,34V1S5K3G12NZOD8EMT18GGRDM196O,34V1S5K3G12NZOD8EMT18GGRDM196O,338054,338054,1,0.03,"""",2313.100000023842,49,"<div id=""message-div""><p>How confident are you that your clockwise/counter-clockwise response just now was accurate? Please rate your confidence on the slider bar below.</p></div>","""","""","""",50,"""","""","""",49,"2021-12-31 03:30:01",192.145.117.242,"Mozilla/5.0 (Windows NT 10.0; Win64; x64) AppleWebKit/537.36 (KHTML, like Gecko) Chrome/96.0.4664.110 Safari/537.36",WebKit,Chrome,96.0.4664.110,Windows,10.0,ac0f2dffeffaa78d35a552e03d03f0a8
12,1,"""",test_procedure,fixation,html-keyboard-response,48,191720,0.0-11.0-0.0-0.2,3SD15I2WEBVYX2RZ7BNPTJHHA9P63F,A2FGKKWP33DFWS,34V1S5K3G12NZOD8EMT18GGRDM196O,3SV44,3SV44,34V1S5K3G12NZOD8EMT18GGRDM196O,34V1S5K3G12NZOD8EMT18GGRDM196O,338054,338054,1,0.03,"""",null,null,"<div class = fixationbox><div class = fixation>+</div></div>","""","""","""","""","""","""","""","""","2021-12-31 03:30:01",192.145.117.242,"Mozilla/5.0 (Windows NT 10.0; Win64; x64) AppleWebKit/537.36 (KHTML, like Gecko) Chrome/96.0.4664.110 Safari/537.36",WebKit,Chrome,96.0.4664.110,Windows,10.0,ac0f2dffeffaa78d35a552e03d03f0a8
12,1,"""",test_procedure,stim_test,canvas-button-response,49,197003,0.0-11.0-0.0-1.2,3SD15I2WEBVYX2RZ7BNPTJHHA9P63F,A2FGKKWP33DFWS,34V1S5K3G12NZOD8EMT18GGRDM196O,3SV44,3SV44,34V1S5K3G12NZOD8EMT18GGRDM196O,34V1S5K3G12NZOD8EMT18GGRDM196O,338054,338054,1,0.03,"""",5239.5,0,stim3,1,Clockwise,false,"""",0.3,60,"""","""","2021-12-31 03:30:01",192.145.117.242,"Mozilla/5.0 (Windows NT 10.0; Win64; x64) AppleWebKit/537.36 (KHTML, like Gecko) Chrome/96.0.4664.110 Safari/537.36",WebKit,Chrome,96.0.4664.110,Windows,10.0,ac0f2dffeffaa78d35a552e03d03f0a8
12,1,"""",test_procedure,confidence_rating,html-slider-response,50,199601,0.0-11.0-0.0-2.2,3SD15I2WEBVYX2RZ7BNPTJHHA9P63F,A2FGKKWP33DFWS,34V1S5K3G12NZOD8EMT18GGRDM196O,3SV44,3SV44,34V1S5K3G12NZOD8EMT18GGRDM196O,34V1S5K3G12NZOD8EMT18GGRDM196O,338054,338054,1,0.03,"""",2595.5,56,"<div id=""message-div""><p>How confident are you that your clockwise/counter-clockwise response just now was accurate? Please rate your confidence on the slider bar below.</p></div>","""","""","""",50,"""","""","""",56,"2021-12-31 03:30:01",192.145.117.242,"Mozilla/5.0 (Windows NT 10.0; Win64; x64) AppleWebKit/537.36 (KHTML, like Gecko) Chrome/96.0.4664.110 Safari/537.36",WebKit,Chrome,96.0.4664.110,Windows,10.0,ac0f2dffeffaa78d35a552e03d03f0a8
12,1,"""",test_procedure,fixation,html-keyboard-response,51,200103,0.0-11.0-0.0-0.3,3SD15I2WEBVYX2RZ7BNPTJHHA9P63F,A2FGKKWP33DFWS,34V1S5K3G12NZOD8EMT18GGRDM196O,3SV44,3SV44,34V1S5K3G12NZOD8EMT18GGRDM196O,34V1S5K3G12NZOD8EMT18GGRDM196O,338054,338054,1,0.03,"""",null,null,"<div class = fixationbox><div class = fixation>+</div></div>","""","""","""","""","""","""","""","""","2021-12-31 03:30:01",192.145.117.242,"Mozilla/5.0 (Windows NT 10.0; Win64; x64) AppleWebKit/537.36 (KHTML, like Gecko) Chrome/96.0.4664.110 Safari/537.36",WebKit,Chrome,96.0.4664.110,Windows,10.0,ac0f2dffeffaa78d35a552e03d03f0a8
12,1,"""",test_procedure,stim_test,canvas-button-response,52,203573,0.0-11.0-0.0-1.3,3SD15I2WEBVYX2RZ7BNPTJHHA9P63F,A2FGKKWP33DFWS,34V1S5K3G12NZOD8EMT18GGRDM196O,3SV44,3SV44,34V1S5K3G12NZOD8EMT18GGRDM196O,34V1S5K3G12NZOD8EMT18GGRDM196O,338054,338054,1,0.03,"""",3421.9000000953674,0,catchStim6,0,Counter-clockwise,true,"""",0.3,120,0.6,"""","2021-12-31 03:30:01",192.145.117.242,"Mozilla/5.0 (Windows NT 10.0; Win64; x64) AppleWebKit/537.36 (KHTML, like Gecko) Chrome/96.0.4664.110 Safari/537.36",WebKit,Chrome,96.0.4664.110,Windows,10.0,ac0f2dffeffaa78d35a552e03d03f0a8
12,1,"""",test_procedure,confidence_rating,html-slider-response,53,207065,0.0-11.0-0.0-2.3,3SD15I2WEBVYX2RZ7BNPTJHHA9P63F,A2FGKKWP33DFWS,34V1S5K3G12NZOD8EMT18GGRDM196O,3SV44,3SV44,34V1S5K3G12NZOD8EMT18GGRDM196O,34V1S5K3G12NZOD8EMT18GGRDM196O,338054,338054,1,0.03,"""",3489,96,"<div id=""message-div""><p>How confident are you that your clockwise/counter-clockwise response just now was accurate? Please rate your confidence on the slider bar below.</p></div>","""","""","""",50,"""","""","""",96,"2021-12-31 03:30:01",192.145.117.242,"Mozilla/5.0 (Windows NT 10.0; Win64; x64) AppleWebKit/537.36 (KHTML, like Gecko) Chrome/96.0.4664.110 Safari/537.36",WebKit,Chrome,96.0.4664.110,Windows,10.0,ac0f2dffeffaa78d35a552e03d03f0a8
12,1,"""",test_procedure,fixation,html-keyboard-response,54,207567,0.0-11.0-0.0-0.4,3SD15I2WEBVYX2RZ7BNPTJHHA9P63F,A2FGKKWP33DFWS,34V1S5K3G12NZOD8EMT18GGRDM196O,3SV44,3SV44,34V1S5K3G12NZOD8EMT18GGRDM196O,34V1S5K3G12NZOD8EMT18GGRDM196O,338054,338054,1,0.03,"""",null,null,"<div class = fixationbox><div class = fixation>+</div></div>","""","""","""","""","""","""","""","""","2021-12-31 03:30:01",192.145.117.242,"Mozilla/5.0 (Windows NT 10.0; Win64; x64) AppleWebKit/537.36 (KHTML, like Gecko) Chrome/96.0.4664.110 Safari/537.36",WebKit,Chrome,96.0.4664.110,Windows,10.0,ac0f2dffeffaa78d35a552e03d03f0a8
12,1,"""",test_procedure,stim_test,canvas-button-response,55,211348,0.0-11.0-0.0-1.4,3SD15I2WEBVYX2RZ7BNPTJHHA9P63F,A2FGKKWP33DFWS,34V1S5K3G12NZOD8EMT18GGRDM196O,3SV44,3SV44,34V1S5K3G12NZOD8EMT18GGRDM196O,34V1S5K3G12NZOD8EMT18GGRDM196O,338054,338054,1,0.03,"""",3735.5,1,stim1,1,Clockwise,true,"""",0.01,60,"""","""","2021-12-31 03:30:01",192.145.117.242,"Mozilla/5.0 (Windows NT 10.0; Win64; x64) AppleWebKit/537.36 (KHTML, like Gecko) Chrome/96.0.4664.110 Safari/537.36",WebKit,Chrome,96.0.4664.110,Windows,10.0,ac0f2dffeffaa78d35a552e03d03f0a8
12,1,"""",test_procedure,confidence_rating,html-slider-response,56,214874,0.0-11.0-0.0-2.4,3SD15I2WEBVYX2RZ7BNPTJHHA9P63F,A2FGKKWP33DFWS,34V1S5K3G12NZOD8EMT18GGRDM196O,3SV44,3SV44,34V1S5K3G12NZOD8EMT18GGRDM196O,34V1S5K3G12NZOD8EMT18GGRDM196O,338054,338054,1,0.03,"""",3523.2999999523163,30,"<div id=""message-div""><p>How confident are you that your clockwise/counter-clockwise response just now was accurate? Please rate your confidence on the slider bar below.</p></div>","""","""","""",50,"""","""","""",30,"2021-12-31 03:30:01",192.145.117.242,"Mozilla/5.0 (Windows NT 10.0; Win64; x64) AppleWebKit/537.36 (KHTML, like Gecko) Chrome/96.0.4664.110 Safari/537.36",WebKit,Chrome,96.0.4664.110,Windows,10.0,ac0f2dffeffaa78d35a552e03d03f0a8
12,1,"""",test_procedure,fixation,html-keyboard-response,57,215375,0.0-11.0-0.0-0.5,3SD15I2WEBVYX2RZ7BNPTJHHA9P63F,A2FGKKWP33DFWS,34V1S5K3G12NZOD8EMT18GGRDM196O,3SV44,3SV44,34V1S5K3G12NZOD8EMT18GGRDM196O,34V1S5K3G12NZOD8EMT18GGRDM196O,338054,338054,1,0.03,"""",null,null,"<div class = fixationbox><div class = fixation>+</div></div>","""","""","""","""","""","""","""","""","2021-12-31 03:30:01",192.145.117.242,"Mozilla/5.0 (Windows NT 10.0; Win64; x64) AppleWebKit/537.36 (KHTML, like Gecko) Chrome/96.0.4664.110 Safari/537.36",WebKit,Chrome,96.0.4664.110,Windows,10.0,ac0f2dffeffaa78d35a552e03d03f0a8
12,1,"""",test_procedure,stim_test,canvas-button-response,58,218378,0.0-11.0-0.0-1.5,3SD15I2WEBVYX2RZ7BNPTJHHA9P63F,A2FGKKWP33DFWS,34V1S5K3G12NZOD8EMT18GGRDM196O,3SV44,3SV44,34V1S5K3G12NZOD8EMT18GGRDM196O,34V1S5K3G12NZOD8EMT18GGRDM196O,338054,338054,1,0.03,"""",2951.399999976158,0,stim4,0,Counter-clockwise,true,"""",0.3,120,"""","""","2021-12-31 03:30:01",192.145.117.242,"Mozilla/5.0 (Windows NT 10.0; Win64; x64) AppleWebKit/537.36 (KHTML, like Gecko) Chrome/96.0.4664.110 Safari/537.36",WebKit,Chrome,96.0.4664.110,Windows,10.0,ac0f2dffeffaa78d35a552e03d03f0a8
12,1,"""",test_procedure,confidence_rating,html-slider-response,59,220912,0.0-11.0-0.0-2.5,3SD15I2WEBVYX2RZ7BNPTJHHA9P63F,A2FGKKWP33DFWS,34V1S5K3G12NZOD8EMT18GGRDM196O,3SV44,3SV44,34V1S5K3G12NZOD8EMT18GGRDM196O,34V1S5K3G12NZOD8EMT18GGRDM196O,338054,338054,1,0.03,"""",2530.100000023842,33,"<div id=""message-div""><p>How confident are you that your clockwise/counter-clockwise response just now was accurate? Please rate your confidence on the slider bar below.</p></div>","""","""","""",50,"""","""","""",33,"2021-12-31 03:30:01",192.145.117.242,"Mozilla/5.0 (Windows NT 10.0; Win64; x64) AppleWebKit/537.36 (KHTML, like Gecko) Chrome/96.0.4664.110 Safari/537.36",WebKit,Chrome,96.0.4664.110,Windows,10.0,ac0f2dffeffaa78d35a552e03d03f0a8
12,1,"""",test_procedure,fixation,html-keyboard-response,60,221414,0.0-11.0-0.0-0.6,3SD15I2WEBVYX2RZ7BNPTJHHA9P63F,A2FGKKWP33DFWS,34V1S5K3G12NZOD8EMT18GGRDM196O,3SV44,3SV44,34V1S5K3G12NZOD8EMT18GGRDM196O,34V1S5K3G12NZOD8EMT18GGRDM196O,338054,338054,1,0.03,"""",null,null,"<div class = fixationbox><div class = fixation>+</div></div>","""","""","""","""","""","""","""","""","2021-12-31 03:30:01",192.145.117.242,"Mozilla/5.0 (Windows NT 10.0; Win64; x64) AppleWebKit/537.36 (KHTML, like Gecko) Chrome/96.0.4664.110 Safari/537.36",WebKit,Chrome,96.0.4664.110,Windows,10.0,ac0f2dffeffaa78d35a552e03d03f0a8
12,1,"""",test_procedure,stim_test,canvas-button-response,61,225312,0.0-11.0-0.0-1.6,3SD15I2WEBVYX2RZ7BNPTJHHA9P63F,A2FGKKWP33DFWS,34V1S5K3G12NZOD8EMT18GGRDM196O,3SV44,3SV44,34V1S5K3G12NZOD8EMT18GGRDM196O,34V1S5K3G12NZOD8EMT18GGRDM196O,338054,338054,1,0.03,"""",3852.6999999284744,0,stim2,0,Counter-clockwise,true,"""",0.01,120,"""","""","2021-12-31 03:30:01",192.145.117.242,"Mozilla/5.0 (Windows NT 10.0; Win64; x64) AppleWebKit/537.36 (KHTML, like Gecko) Chrome/96.0.4664.110 Safari/537.36",WebKit,Chrome,96.0.4664.110,Windows,10.0,ac0f2dffeffaa78d35a552e03d03f0a8
12,1,"""",test_procedure,confidence_rating,html-slider-response,62,227656,0.0-11.0-0.0-2.6,3SD15I2WEBVYX2RZ7BNPTJHHA9P63F,A2FGKKWP33DFWS,34V1S5K3G12NZOD8EMT18GGRDM196O,3SV44,3SV44,34V1S5K3G12NZOD8EMT18GGRDM196O,34V1S5K3G12NZOD8EMT18GGRDM196O,338054,338054,1,0.03,"""",2341.2000000476837,74,"<div id=""message-div""><p>How confident are you that your clockwise/counter-clockwise response just now was accurate? Please rate your confidence on the slider bar below.</p></div>","""","""","""",50,"""","""","""",74,"2021-12-31 03:30:01",192.145.117.242,"Mozilla/5.0 (Windows NT 10.0; Win64; x64) AppleWebKit/537.36 (KHTML, like Gecko) Chrome/96.0.4664.110 Safari/537.36",WebKit,Chrome,96.0.4664.110,Windows,10.0,ac0f2dffeffaa78d35a552e03d03f0a8
12,1,"""",test_procedure,fixation,html-keyboard-response,63,228159,0.0-11.0-0.0-0.7,3SD15I2WEBVYX2RZ7BNPTJHHA9P63F,A2FGKKWP33DFWS,34V1S5K3G12NZOD8EMT18GGRDM196O,3SV44,3SV44,34V1S5K3G12NZOD8EMT18GGRDM196O,34V1S5K3G12NZOD8EMT18GGRDM196O,338054,338054,1,0.03,"""",null,null,"<div class = fixationbox><div class = fixation>+</div></div>","""","""","""","""","""","""","""","""","2021-12-31 03:30:01",192.145.117.242,"Mozilla/5.0 (Windows NT 10.0; Win64; x64) AppleWebKit/537.36 (KHTML, like Gecko) Chrome/96.0.4664.110 Safari/537.36",WebKit,Chrome,96.0.4664.110,Windows,10.0,ac0f2dffeffaa78d35a552e03d03f0a8
12,1,"""",test_procedure,stim_test,canvas-button-response,64,232866,0.0-11.0-0.0-1.7,3SD15I2WEBVYX2RZ7BNPTJHHA9P63F,A2FGKKWP33DFWS,34V1S5K3G12NZOD8EMT18GGRDM196O,3SV44,3SV44,34V1S5K3G12NZOD8EMT18GGRDM196O,34V1S5K3G12NZOD8EMT18GGRDM196O,338054,338054,1,0.03,"""",4665.399999976158,1,catchStim5,1,Clockwise,true,"""",0.3,60,0.6,"""","2021-12-31 03:30:01",192.145.117.242,"Mozilla/5.0 (Windows NT 10.0; Win64; x64) AppleWebKit/537.36 (KHTML, like Gecko) Chrome/96.0.4664.110 Safari/537.36",WebKit,Chrome,96.0.4664.110,Windows,10.0,ac0f2dffeffaa78d35a552e03d03f0a8
12,1,"""",test_procedure,confidence_rating,html-slider-response,65,235208,0.0-11.0-0.0-2.7,3SD15I2WEBVYX2RZ7BNPTJHHA9P63F,A2FGKKWP33DFWS,34V1S5K3G12NZOD8EMT18GGRDM196O,3SV44,3SV44,34V1S5K3G12NZOD8EMT18GGRDM196O,34V1S5K3G12NZOD8EMT18GGRDM196O,338054,338054,1,0.03,"""",2338.899999976158,85,"<div id=""message-div""><p>How confident are you that your clockwise/counter-clockwise response just now was accurate? Please rate your confidence on the slider bar below.</p></div>","""","""","""",50,"""","""","""",85,"2021-12-31 03:30:01",192.145.117.242,"Mozilla/5.0 (Windows NT 10.0; Win64; x64) AppleWebKit/537.36 (KHTML, like Gecko) Chrome/96.0.4664.110 Safari/537.36",WebKit,Chrome,96.0.4664.110,Windows,10.0,ac0f2dffeffaa78d35a552e03d03f0a8
12,1,"""",test_procedure,fixation,html-keyboard-response,66,235710,0.0-11.0-0.0-0.8,3SD15I2WEBVYX2RZ7BNPTJHHA9P63F,A2FGKKWP33DFWS,34V1S5K3G12NZOD8EMT18GGRDM196O,3SV44,3SV44,34V1S5K3G12NZOD8EMT18GGRDM196O,34V1S5K3G12NZOD8EMT18GGRDM196O,338054,338054,1,0.03,"""",null,null,"<div class = fixationbox><div class = fixation>+</div></div>","""","""","""","""","""","""","""","""","2021-12-31 03:30:01",192.145.117.242,"Mozilla/5.0 (Windows NT 10.0; Win64; x64) AppleWebKit/537.36 (KHTML, like Gecko) Chrome/96.0.4664.110 Safari/537.36",WebKit,Chrome,96.0.4664.110,Windows,10.0,ac0f2dffeffaa78d35a552e03d03f0a8
12,1,"""",test_procedure,stim_test,canvas-button-response,67,238708,0.0-11.0-0.0-1.8,3SD15I2WEBVYX2RZ7BNPTJHHA9P63F,A2FGKKWP33DFWS,34V1S5K3G12NZOD8EMT18GGRDM196O,3SV44,3SV44,34V1S5K3G12NZOD8EMT18GGRDM196O,34V1S5K3G12NZOD8EMT18GGRDM196O,338054,338054,1,0.03,"""",2956.7999999523163,0,stim4,0,Counter-clockwise,true,"""",0.3,120,"""","""","2021-12-31 03:30:01",192.145.117.242,"Mozilla/5.0 (Windows NT 10.0; Win64; x64) AppleWebKit/537.36 (KHTML, like Gecko) Chrome/96.0.4664.110 Safari/537.36",WebKit,Chrome,96.0.4664.110,Windows,10.0,ac0f2dffeffaa78d35a552e03d03f0a8
12,1,"""",test_procedure,confidence_rating,html-slider-response,68,241628,0.0-11.0-0.0-2.8,3SD15I2WEBVYX2RZ7BNPTJHHA9P63F,A2FGKKWP33DFWS,34V1S5K3G12NZOD8EMT18GGRDM196O,3SV44,3SV44,34V1S5K3G12NZOD8EMT18GGRDM196O,34V1S5K3G12NZOD8EMT18GGRDM196O,338054,338054,1,0.03,"""",2917.1999999284744,31,"<div id=""message-div""><p>How confident are you that your clockwise/counter-clockwise response just now was accurate? Please rate your confidence on the slider bar below.</p></div>","""","""","""",50,"""","""","""",31,"2021-12-31 03:30:01",192.145.117.242,"Mozilla/5.0 (Windows NT 10.0; Win64; x64) AppleWebKit/537.36 (KHTML, like Gecko) Chrome/96.0.4664.110 Safari/537.36",WebKit,Chrome,96.0.4664.110,Windows,10.0,ac0f2dffeffaa78d35a552e03d03f0a8
12,1,"""",test_procedure,fixation,html-keyboard-response,69,242130,0.0-11.0-0.0-0.9,3SD15I2WEBVYX2RZ7BNPTJHHA9P63F,A2FGKKWP33DFWS,34V1S5K3G12NZOD8EMT18GGRDM196O,3SV44,3SV44,34V1S5K3G12NZOD8EMT18GGRDM196O,34V1S5K3G12NZOD8EMT18GGRDM196O,338054,338054,1,0.03,"""",null,null,"<div class = fixationbox><div class = fixation>+</div></div>","""","""","""","""","""","""","""","""","2021-12-31 03:30:01",192.145.117.242,"Mozilla/5.0 (Windows NT 10.0; Win64; x64) AppleWebKit/537.36 (KHTML, like Gecko) Chrome/96.0.4664.110 Safari/537.36",WebKit,Chrome,96.0.4664.110,Windows,10.0,ac0f2dffeffaa78d35a552e03d03f0a8
12,1,"""",test_procedure,stim_test,canvas-button-response,70,244214,0.0-11.0-0.0-1.9,3SD15I2WEBVYX2RZ7BNPTJHHA9P63F,A2FGKKWP33DFWS,34V1S5K3G12NZOD8EMT18GGRDM196O,3SV44,3SV44,34V1S5K3G12NZOD8EMT18GGRDM196O,34V1S5K3G12NZOD8EMT18GGRDM196O,338054,338054,1,0.03,"""",2041.6000000238419,0,stim3,1,Clockwise,false,"""",0.3,60,"""","""","2021-12-31 03:30:01",192.145.117.242,"Mozilla/5.0 (Windows NT 10.0; Win64; x64) AppleWebKit/537.36 (KHTML, like Gecko) Chrome/96.0.4664.110 Safari/537.36",WebKit,Chrome,96.0.4664.110,Windows,10.0,ac0f2dffeffaa78d35a552e03d03f0a8
12,1,"""",test_procedure,confidence_rating,html-slider-response,71,246506,0.0-11.0-0.0-2.9,3SD15I2WEBVYX2RZ7BNPTJHHA9P63F,A2FGKKWP33DFWS,34V1S5K3G12NZOD8EMT18GGRDM196O,3SV44,3SV44,34V1S5K3G12NZOD8EMT18GGRDM196O,34V1S5K3G12NZOD8EMT18GGRDM196O,338054,338054,1,0.03,"""",2288.899999976158,26,"<div id=""message-div""><p>How confident are you that your clockwise/counter-clockwise response just now was accurate? Please rate your confidence on the slider bar below.</p></div>","""","""","""",50,"""","""","""",26,"2021-12-31 03:30:01",192.145.117.242,"Mozilla/5.0 (Windows NT 10.0; Win64; x64) AppleWebKit/537.36 (KHTML, like Gecko) Chrome/96.0.4664.110 Safari/537.36",WebKit,Chrome,96.0.4664.110,Windows,10.0,ac0f2dffeffaa78d35a552e03d03f0a8
12,1,"""",test_procedure,fixation,html-keyboard-response,72,247007,0.0-11.0-0.0-0.10,3SD15I2WEBVYX2RZ7BNPTJHHA9P63F,A2FGKKWP33DFWS,34V1S5K3G12NZOD8EMT18GGRDM196O,3SV44,3SV44,34V1S5K3G12NZOD8EMT18GGRDM196O,34V1S5K3G12NZOD8EMT18GGRDM196O,338054,338054,1,0.03,"""",null,null,"<div class = fixationbox><div class = fixation>+</div></div>","""","""","""","""","""","""","""","""","2021-12-31 03:30:01",192.145.117.242,"Mozilla/5.0 (Windows NT 10.0; Win64; x64) AppleWebKit/537.36 (KHTML, like Gecko) Chrome/96.0.4664.110 Safari/537.36",WebKit,Chrome,96.0.4664.110,Windows,10.0,ac0f2dffeffaa78d35a552e03d03f0a8
12,1,"""",test_procedure,stim_test,canvas-button-response,73,249468,0.0-11.0-0.0-1.10,3SD15I2WEBVYX2RZ7BNPTJHHA9P63F,A2FGKKWP33DFWS,34V1S5K3G12NZOD8EMT18GGRDM196O,3SV44,3SV44,34V1S5K3G12NZOD8EMT18GGRDM196O,34V1S5K3G12NZOD8EMT18GGRDM196O,338054,338054,1,0.03,"""",2419.100000023842,1,stim4,0,Counter-clockwise,false,"""",0.3,120,"""","""","2021-12-31 03:30:01",192.145.117.242,"Mozilla/5.0 (Windows NT 10.0; Win64; x64) AppleWebKit/537.36 (KHTML, like Gecko) Chrome/96.0.4664.110 Safari/537.36",WebKit,Chrome,96.0.4664.110,Windows,10.0,ac0f2dffeffaa78d35a552e03d03f0a8
12,1,"""",test_procedure,confidence_rating,html-slider-response,74,251792,0.0-11.0-0.0-2.10,3SD15I2WEBVYX2RZ7BNPTJHHA9P63F,A2FGKKWP33DFWS,34V1S5K3G12NZOD8EMT18GGRDM196O,3SV44,3SV44,34V1S5K3G12NZOD8EMT18GGRDM196O,34V1S5K3G12NZOD8EMT18GGRDM196O,338054,338054,1,0.03,"""",2323,76,"<div id=""message-div""><p>How confident are you that your clockwise/counter-clockwise response just now was accurate? Please rate your confidence on the slider bar below.</p></div>","""","""","""",50,"""","""","""",76,"2021-12-31 03:30:01",192.145.117.242,"Mozilla/5.0 (Windows NT 10.0; Win64; x64) AppleWebKit/537.36 (KHTML, like Gecko) Chrome/96.0.4664.110 Safari/537.36",WebKit,Chrome,96.0.4664.110,Windows,10.0,ac0f2dffeffaa78d35a552e03d03f0a8
12,1,"""",test_procedure,fixation,html-keyboard-response,75,252296,0.0-11.0-0.0-0.11,3SD15I2WEBVYX2RZ7BNPTJHHA9P63F,A2FGKKWP33DFWS,34V1S5K3G12NZOD8EMT18GGRDM196O,3SV44,3SV44,34V1S5K3G12NZOD8EMT18GGRDM196O,34V1S5K3G12NZOD8EMT18GGRDM196O,338054,338054,1,0.03,"""",null,null,"<div class = fixationbox><div class = fixation>+</div></div>","""","""","""","""","""","""","""","""","2021-12-31 03:30:01",192.145.117.242,"Mozilla/5.0 (Windows NT 10.0; Win64; x64) AppleWebKit/537.36 (KHTML, like Gecko) Chrome/96.0.4664.110 Safari/537.36",WebKit,Chrome,96.0.4664.110,Windows,10.0,ac0f2dffeffaa78d35a552e03d03f0a8
12,1,"""",test_procedure,stim_test,canvas-button-response,76,254064,0.0-11.0-0.0-1.11,3SD15I2WEBVYX2RZ7BNPTJHHA9P63F,A2FGKKWP33DFWS,34V1S5K3G12NZOD8EMT18GGRDM196O,3SV44,3SV44,34V1S5K3G12NZOD8EMT18GGRDM196O,34V1S5K3G12NZOD8EMT18GGRDM196O,338054,338054,1,0.03,"""",1725,0,stim2,0,Counter-clockwise,true,"""",0.01,120,"""","""","2021-12-31 03:30:01",192.145.117.242,"Mozilla/5.0 (Windows NT 10.0; Win64; x64) AppleWebKit/537.36 (KHTML, like Gecko) Chrome/96.0.4664.110 Safari/537.36",WebKit,Chrome,96.0.4664.110,Windows,10.0,ac0f2dffeffaa78d35a552e03d03f0a8
12,1,"""",test_procedure,confidence_rating,html-slider-response,77,258262,0.0-11.0-0.0-2.11,3SD15I2WEBVYX2RZ7BNPTJHHA9P63F,A2FGKKWP33DFWS,34V1S5K3G12NZOD8EMT18GGRDM196O,3SV44,3SV44,34V1S5K3G12NZOD8EMT18GGRDM196O,34V1S5K3G12NZOD8EMT18GGRDM196O,338054,338054,1,0.03,"""",4196.800000071526,22,"<div id=""message-div""><p>How confident are you that your clockwise/counter-clockwise response just now was accurate? Please rate your confidence on the slider bar below.</p></div>","""","""","""",50,"""","""","""",22,"2021-12-31 03:30:01",192.145.117.242,"Mozilla/5.0 (Windows NT 10.0; Win64; x64) AppleWebKit/537.36 (KHTML, like Gecko) Chrome/96.0.4664.110 Safari/537.36",WebKit,Chrome,96.0.4664.110,Windows,10.0,ac0f2dffeffaa78d35a552e03d03f0a8
12,1,"""",test_procedure,fixation,html-keyboard-response,78,258766,0.0-11.0-0.0-0.12,3SD15I2WEBVYX2RZ7BNPTJHHA9P63F,A2FGKKWP33DFWS,34V1S5K3G12NZOD8EMT18GGRDM196O,3SV44,3SV44,34V1S5K3G12NZOD8EMT18GGRDM196O,34V1S5K3G12NZOD8EMT18GGRDM196O,338054,338054,1,0.03,"""",null,null,"<div class = fixationbox><div class = fixation>+</div></div>","""","""","""","""","""","""","""","""","2021-12-31 03:30:01",192.145.117.242,"Mozilla/5.0 (Windows NT 10.0; Win64; x64) AppleWebKit/537.36 (KHTML, like Gecko) Chrome/96.0.4664.110 Safari/537.36",WebKit,Chrome,96.0.4664.110,Windows,10.0,ac0f2dffeffaa78d35a552e03d03f0a8
12,1,"""",test_procedure,stim_test,canvas-button-response,79,260756,0.0-11.0-0.0-1.12,3SD15I2WEBVYX2RZ7BNPTJHHA9P63F,A2FGKKWP33DFWS,34V1S5K3G12NZOD8EMT18GGRDM196O,3SV44,3SV44,34V1S5K3G12NZOD8EMT18GGRDM196O,34V1S5K3G12NZOD8EMT18GGRDM196O,338054,338054,1,0.03,"""",1949.7999999523163,0,stim2,0,Counter-clockwise,true,"""",0.01,120,"""","""","2021-12-31 03:30:01",192.145.117.242,"Mozilla/5.0 (Windows NT 10.0; Win64; x64) AppleWebKit/537.36 (KHTML, like Gecko) Chrome/96.0.4664.110 Safari/537.36",WebKit,Chrome,96.0.4664.110,Windows,10.0,ac0f2dffeffaa78d35a552e03d03f0a8
12,1,"""",test_procedure,confidence_rating,html-slider-response,80,262898,0.0-11.0-0.0-2.12,3SD15I2WEBVYX2RZ7BNPTJHHA9P63F,A2FGKKWP33DFWS,34V1S5K3G12NZOD8EMT18GGRDM196O,3SV44,3SV44,34V1S5K3G12NZOD8EMT18GGRDM196O,34V1S5K3G12NZOD8EMT18GGRDM196O,338054,338054,1,0.03,"""",2140.7000000476837,21,"<div id=""message-div""><p>How confident are you that your clockwise/counter-clockwise response just now was accurate? Please rate your confidence on the slider bar below.</p></div>","""","""","""",50,"""","""","""",21,"2021-12-31 03:30:01",192.145.117.242,"Mozilla/5.0 (Windows NT 10.0; Win64; x64) AppleWebKit/537.36 (KHTML, like Gecko) Chrome/96.0.4664.110 Safari/537.36",WebKit,Chrome,96.0.4664.110,Windows,10.0,ac0f2dffeffaa78d35a552e03d03f0a8
12,1,"""",test_procedure,fixation,html-keyboard-response,81,263400,0.0-11.0-0.0-0.13,3SD15I2WEBVYX2RZ7BNPTJHHA9P63F,A2FGKKWP33DFWS,34V1S5K3G12NZOD8EMT18GGRDM196O,3SV44,3SV44,34V1S5K3G12NZOD8EMT18GGRDM196O,34V1S5K3G12NZOD8EMT18GGRDM196O,338054,338054,1,0.03,"""",null,null,"<div class = fixationbox><div class = fixation>+</div></div>","""","""","""","""","""","""","""","""","2021-12-31 03:30:01",192.145.117.242,"Mozilla/5.0 (Windows NT 10.0; Win64; x64) AppleWebKit/537.36 (KHTML, like Gecko) Chrome/96.0.4664.110 Safari/537.36",WebKit,Chrome,96.0.4664.110,Windows,10.0,ac0f2dffeffaa78d35a552e03d03f0a8
12,1,"""",test_procedure,stim_test,canvas-button-response,82,265182,0.0-11.0-0.0-1.13,3SD15I2WEBVYX2RZ7BNPTJHHA9P63F,A2FGKKWP33DFWS,34V1S5K3G12NZOD8EMT18GGRDM196O,3SV44,3SV44,34V1S5K3G12NZOD8EMT18GGRDM196O,34V1S5K3G12NZOD8EMT18GGRDM196O,338054,338054,1,0.03,"""",1738.8000000715256,1,stim1,1,Clockwise,true,"""",0.01,60,"""","""","2021-12-31 03:30:01",192.145.117.242,"Mozilla/5.0 (Windows NT 10.0; Win64; x64) AppleWebKit/537.36 (KHTML, like Gecko) Chrome/96.0.4664.110 Safari/537.36",WebKit,Chrome,96.0.4664.110,Windows,10.0,ac0f2dffeffaa78d35a552e03d03f0a8
12,1,"""",test_procedure,confidence_rating,html-slider-response,83,267748,0.0-11.0-0.0-2.13,3SD15I2WEBVYX2RZ7BNPTJHHA9P63F,A2FGKKWP33DFWS,34V1S5K3G12NZOD8EMT18GGRDM196O,3SV44,3SV44,34V1S5K3G12NZOD8EMT18GGRDM196O,34V1S5K3G12NZOD8EMT18GGRDM196O,338054,338054,1,0.03,"""",2562.7000000476837,33,"<div id=""message-div""><p>How confident are you that your clockwise/counter-clockwise response just now was accurate? Please rate your confidence on the slider bar below.</p></div>","""","""","""",50,"""","""","""",33,"2021-12-31 03:30:01",192.145.117.242,"Mozilla/5.0 (Windows NT 10.0; Win64; x64) AppleWebKit/537.36 (KHTML, like Gecko) Chrome/96.0.4664.110 Safari/537.36",WebKit,Chrome,96.0.4664.110,Windows,10.0,ac0f2dffeffaa78d35a552e03d03f0a8
12,1,"""",test_procedure,fixation,html-keyboard-response,84,268250,0.0-11.0-0.0-0.14,3SD15I2WEBVYX2RZ7BNPTJHHA9P63F,A2FGKKWP33DFWS,34V1S5K3G12NZOD8EMT18GGRDM196O,3SV44,3SV44,34V1S5K3G12NZOD8EMT18GGRDM196O,34V1S5K3G12NZOD8EMT18GGRDM196O,338054,338054,1,0.03,"""",null,null,"<div class = fixationbox><div class = fixation>+</div></div>","""","""","""","""","""","""","""","""","2021-12-31 03:30:01",192.145.117.242,"Mozilla/5.0 (Windows NT 10.0; Win64; x64) AppleWebKit/537.36 (KHTML, like Gecko) Chrome/96.0.4664.110 Safari/537.36",WebKit,Chrome,96.0.4664.110,Windows,10.0,ac0f2dffeffaa78d35a552e03d03f0a8
12,1,"""",test_procedure,stim_test,canvas-button-response,85,272880,0.0-11.0-0.0-1.14,3SD15I2WEBVYX2RZ7BNPTJHHA9P63F,A2FGKKWP33DFWS,34V1S5K3G12NZOD8EMT18GGRDM196O,3SV44,3SV44,34V1S5K3G12NZOD8EMT18GGRDM196O,34V1S5K3G12NZOD8EMT18GGRDM196O,338054,338054,1,0.03,"""",4586,0,catchStim2,0,Counter-clockwise,true,"""",0.01,120,0.6,"""","2021-12-31 03:30:01",192.145.117.242,"Mozilla/5.0 (Windows NT 10.0; Win64; x64) AppleWebKit/537.36 (KHTML, like Gecko) Chrome/96.0.4664.110 Safari/537.36",WebKit,Chrome,96.0.4664.110,Windows,10.0,ac0f2dffeffaa78d35a552e03d03f0a8
12,1,"""",test_procedure,confidence_rating,html-slider-response,86,275524,0.0-11.0-0.0-2.14,3SD15I2WEBVYX2RZ7BNPTJHHA9P63F,A2FGKKWP33DFWS,34V1S5K3G12NZOD8EMT18GGRDM196O,3SV44,3SV44,34V1S5K3G12NZOD8EMT18GGRDM196O,34V1S5K3G12NZOD8EMT18GGRDM196O,338054,338054,1,0.03,"""",2640.399999976158,87,"<div id=""message-div""><p>How confident are you that your clockwise/counter-clockwise response just now was accurate? Please rate your confidence on the slider bar below.</p></div>","""","""","""",50,"""","""","""",87,"2021-12-31 03:30:01",192.145.117.242,"Mozilla/5.0 (Windows NT 10.0; Win64; x64) AppleWebKit/537.36 (KHTML, like Gecko) Chrome/96.0.4664.110 Safari/537.36",WebKit,Chrome,96.0.4664.110,Windows,10.0,ac0f2dffeffaa78d35a552e03d03f0a8
12,1,"""",test_procedure,fixation,html-keyboard-response,87,276025,0.0-11.0-0.0-0.15,3SD15I2WEBVYX2RZ7BNPTJHHA9P63F,A2FGKKWP33DFWS,34V1S5K3G12NZOD8EMT18GGRDM196O,3SV44,3SV44,34V1S5K3G12NZOD8EMT18GGRDM196O,34V1S5K3G12NZOD8EMT18GGRDM196O,338054,338054,1,0.03,"""",null,null,"<div class = fixationbox><div class = fixation>+</div></div>","""","""","""","""","""","""","""","""","2021-12-31 03:30:01",192.145.117.242,"Mozilla/5.0 (Windows NT 10.0; Win64; x64) AppleWebKit/537.36 (KHTML, like Gecko) Chrome/96.0.4664.110 Safari/537.36",WebKit,Chrome,96.0.4664.110,Windows,10.0,ac0f2dffeffaa78d35a552e03d03f0a8
12,1,"""",test_procedure,stim_test,canvas-button-response,88,278430,0.0-11.0-0.0-1.15,3SD15I2WEBVYX2RZ7BNPTJHHA9P63F,A2FGKKWP33DFWS,34V1S5K3G12NZOD8EMT18GGRDM196O,3SV44,3SV44,34V1S5K3G12NZOD8EMT18GGRDM196O,34V1S5K3G12NZOD8EMT18GGRDM196O,338054,338054,1,0.03,"""",2364,0,catchStim4,0,Counter-clockwise,true,"""",0.01,120,0.001,"""","2021-12-31 03:30:01",192.145.117.242,"Mozilla/5.0 (Windows NT 10.0; Win64; x64) AppleWebKit/537.36 (KHTML, like Gecko) Chrome/96.0.4664.110 Safari/537.36",WebKit,Chrome,96.0.4664.110,Windows,10.0,ac0f2dffeffaa78d35a552e03d03f0a8
12,1,"""",test_procedure,confidence_rating,html-slider-response,89,280936,0.0-11.0-0.0-2.15,3SD15I2WEBVYX2RZ7BNPTJHHA9P63F,A2FGKKWP33DFWS,34V1S5K3G12NZOD8EMT18GGRDM196O,3SV44,3SV44,34V1S5K3G12NZOD8EMT18GGRDM196O,34V1S5K3G12NZOD8EMT18GGRDM196O,338054,338054,1,0.03,"""",2502.600000023842,34,"<div id=""message-div""><p>How confident are you that your clockwise/counter-clockwise response just now was accurate? Please rate your confidence on the slider bar below.</p></div>","""","""","""",50,"""","""","""",34,"2021-12-31 03:30:01",192.145.117.242,"Mozilla/5.0 (Windows NT 10.0; Win64; x64) AppleWebKit/537.36 (KHTML, like Gecko) Chrome/96.0.4664.110 Safari/537.36",WebKit,Chrome,96.0.4664.110,Windows,10.0,ac0f2dffeffaa78d35a552e03d03f0a8
12,1,"""",test_procedure,fixation,html-keyboard-response,90,281438,0.0-11.0-0.0-0.16,3SD15I2WEBVYX2RZ7BNPTJHHA9P63F,A2FGKKWP33DFWS,34V1S5K3G12NZOD8EMT18GGRDM196O,3SV44,3SV44,34V1S5K3G12NZOD8EMT18GGRDM196O,34V1S5K3G12NZOD8EMT18GGRDM196O,338054,338054,1,0.03,"""",null,null,"<div class = fixationbox><div class = fixation>+</div></div>","""","""","""","""","""","""","""","""","2021-12-31 03:30:01",192.145.117.242,"Mozilla/5.0 (Windows NT 10.0; Win64; x64) AppleWebKit/537.36 (KHTML, like Gecko) Chrome/96.0.4664.110 Safari/537.36",WebKit,Chrome,96.0.4664.110,Windows,10.0,ac0f2dffeffaa78d35a552e03d03f0a8
12,1,"""",test_procedure,stim_test,canvas-button-response,91,283358,0.0-11.0-0.0-1.16,3SD15I2WEBVYX2RZ7BNPTJHHA9P63F,A2FGKKWP33DFWS,34V1S5K3G12NZOD8EMT18GGRDM196O,3SV44,3SV44,34V1S5K3G12NZOD8EMT18GGRDM196O,34V1S5K3G12NZOD8EMT18GGRDM196O,338054,338054,1,0.03,"""",1871.3999999761581,1,stim2,0,Counter-clockwise,false,"""",0.01,120,"""","""","2021-12-31 03:30:01",192.145.117.242,"Mozilla/5.0 (Windows NT 10.0; Win64; x64) AppleWebKit/537.36 (KHTML, like Gecko) Chrome/96.0.4664.110 Safari/537.36",WebKit,Chrome,96.0.4664.110,Windows,10.0,ac0f2dffeffaa78d35a552e03d03f0a8
12,1,"""",test_procedure,confidence_rating,html-slider-response,92,285956,0.0-11.0-0.0-2.16,3SD15I2WEBVYX2RZ7BNPTJHHA9P63F,A2FGKKWP33DFWS,34V1S5K3G12NZOD8EMT18GGRDM196O,3SV44,3SV44,34V1S5K3G12NZOD8EMT18GGRDM196O,34V1S5K3G12NZOD8EMT18GGRDM196O,338054,338054,1,0.03,"""",2596.5,39,"<div id=""message-div""><p>How confident are you that your clockwise/counter-clockwise response just now was accurate? Please rate your confidence on the slider bar below.</p></div>","""","""","""",50,"""","""","""",39,"2021-12-31 03:30:01",192.145.117.242,"Mozilla/5.0 (Windows NT 10.0; Win64; x64) AppleWebKit/537.36 (KHTML, like Gecko) Chrome/96.0.4664.110 Safari/537.36",WebKit,Chrome,96.0.4664.110,Windows,10.0,ac0f2dffeffaa78d35a552e03d03f0a8
12,1,"""",test_procedure,fixation,html-keyboard-response,93,286460,0.0-11.0-0.0-0.17,3SD15I2WEBVYX2RZ7BNPTJHHA9P63F,A2FGKKWP33DFWS,34V1S5K3G12NZOD8EMT18GGRDM196O,3SV44,3SV44,34V1S5K3G12NZOD8EMT18GGRDM196O,34V1S5K3G12NZOD8EMT18GGRDM196O,338054,338054,1,0.03,"""",null,null,"<div class = fixationbox><div class = fixation>+</div></div>","""","""","""","""","""","""","""","""","2021-12-31 03:30:01",192.145.117.242,"Mozilla/5.0 (Windows NT 10.0; Win64; x64) AppleWebKit/537.36 (KHTML, like Gecko) Chrome/96.0.4664.110 Safari/537.36",WebKit,Chrome,96.0.4664.110,Windows,10.0,ac0f2dffeffaa78d35a552e03d03f0a8
12,1,"""",test_procedure,stim_test,canvas-button-response,94,288336,0.0-11.0-0.0-1.17,3SD15I2WEBVYX2RZ7BNPTJHHA9P63F,A2FGKKWP33DFWS,34V1S5K3G12NZOD8EMT18GGRDM196O,3SV44,3SV44,34V1S5K3G12NZOD8EMT18GGRDM196O,34V1S5K3G12NZOD8EMT18GGRDM196O,338054,338054,1,0.03,"""",1832.1999999284744,1,catchStim8,0,Counter-clockwise,false,"""",0.3,120,0.001,"""","2021-12-31 03:30:01",192.145.117.242,"Mozilla/5.0 (Windows NT 10.0; Win64; x64) AppleWebKit/537.36 (KHTML, like Gecko) Chrome/96.0.4664.110 Safari/537.36",WebKit,Chrome,96.0.4664.110,Windows,10.0,ac0f2dffeffaa78d35a552e03d03f0a8
12,1,"""",test_procedure,confidence_rating,html-slider-response,95,291350,0.0-11.0-0.0-2.17,3SD15I2WEBVYX2RZ7BNPTJHHA9P63F,A2FGKKWP33DFWS,34V1S5K3G12NZOD8EMT18GGRDM196O,3SV44,3SV44,34V1S5K3G12NZOD8EMT18GGRDM196O,34V1S5K3G12NZOD8EMT18GGRDM196O,338054,338054,1,0.03,"""",3012.899999976158,30,"<div id=""message-div""><p>How confident are you that your clockwise/counter-clockwise response just now was accurate? Please rate your confidence on the slider bar below.</p></div>","""","""","""",50,"""","""","""",30,"2021-12-31 03:30:01",192.145.117.242,"Mozilla/5.0 (Windows NT 10.0; Win64; x64) AppleWebKit/537.36 (KHTML, like Gecko) Chrome/96.0.4664.110 Safari/537.36",WebKit,Chrome,96.0.4664.110,Windows,10.0,ac0f2dffeffaa78d35a552e03d03f0a8
12,1,"""",test_procedure,fixation,html-keyboard-response,96,291851,0.0-11.0-0.0-0.18,3SD15I2WEBVYX2RZ7BNPTJHHA9P63F,A2FGKKWP33DFWS,34V1S5K3G12NZOD8EMT18GGRDM196O,3SV44,3SV44,34V1S5K3G12NZOD8EMT18GGRDM196O,34V1S5K3G12NZOD8EMT18GGRDM196O,338054,338054,1,0.03,"""",null,null,"<div class = fixationbox><div class = fixation>+</div></div>","""","""","""","""","""","""","""","""","2021-12-31 03:30:01",192.145.117.242,"Mozilla/5.0 (Windows NT 10.0; Win64; x64) AppleWebKit/537.36 (KHTML, like Gecko) Chrome/96.0.4664.110 Safari/537.36",WebKit,Chrome,96.0.4664.110,Windows,10.0,ac0f2dffeffaa78d35a552e03d03f0a8
12,1,"""",test_procedure,stim_test,canvas-button-response,97,293370,0.0-11.0-0.0-1.18,3SD15I2WEBVYX2RZ7BNPTJHHA9P63F,A2FGKKWP33DFWS,34V1S5K3G12NZOD8EMT18GGRDM196O,3SV44,3SV44,34V1S5K3G12NZOD8EMT18GGRDM196O,34V1S5K3G12NZOD8EMT18GGRDM196O,338054,338054,1,0.03,"""",1473.6999999284744,1,stim1,1,Clockwise,true,"""",0.01,60,"""","""","2021-12-31 03:30:01",192.145.117.242,"Mozilla/5.0 (Windows NT 10.0; Win64; x64) AppleWebKit/537.36 (KHTML, like Gecko) Chrome/96.0.4664.110 Safari/537.36",WebKit,Chrome,96.0.4664.110,Windows,10.0,ac0f2dffeffaa78d35a552e03d03f0a8
12,1,"""",test_procedure,confidence_rating,html-slider-response,98,295934,0.0-11.0-0.0-2.18,3SD15I2WEBVYX2RZ7BNPTJHHA9P63F,A2FGKKWP33DFWS,34V1S5K3G12NZOD8EMT18GGRDM196O,3SV44,3SV44,34V1S5K3G12NZOD8EMT18GGRDM196O,34V1S5K3G12NZOD8EMT18GGRDM196O,338054,338054,1,0.03,"""",2563,23,"<div id=""message-div""><p>How confident are you that your clockwise/counter-clockwise response just now was accurate? Please rate your confidence on the slider bar below.</p></div>","""","""","""",50,"""","""","""",23,"2021-12-31 03:30:01",192.145.117.242,"Mozilla/5.0 (Windows NT 10.0; Win64; x64) AppleWebKit/537.36 (KHTML, like Gecko) Chrome/96.0.4664.110 Safari/537.36",WebKit,Chrome,96.0.4664.110,Windows,10.0,ac0f2dffeffaa78d35a552e03d03f0a8
12,1,"""",test_procedure,fixation,html-keyboard-response,99,296435,0.0-11.0-0.0-0.19,3SD15I2WEBVYX2RZ7BNPTJHHA9P63F,A2FGKKWP33DFWS,34V1S5K3G12NZOD8EMT18GGRDM196O,3SV44,3SV44,34V1S5K3G12NZOD8EMT18GGRDM196O,34V1S5K3G12NZOD8EMT18GGRDM196O,338054,338054,1,0.03,"""",null,null,"<div class = fixationbox><div class = fixation>+</div></div>","""","""","""","""","""","""","""","""","2021-12-31 03:30:01",192.145.117.242,"Mozilla/5.0 (Windows NT 10.0; Win64; x64) AppleWebKit/537.36 (KHTML, like Gecko) Chrome/96.0.4664.110 Safari/537.36",WebKit,Chrome,96.0.4664.110,Windows,10.0,ac0f2dffeffaa78d35a552e03d03f0a8
12,1,"""",test_procedure,stim_test,canvas-button-response,100,298624,0.0-11.0-0.0-1.19,3SD15I2WEBVYX2RZ7BNPTJHHA9P63F,A2FGKKWP33DFWS,34V1S5K3G12NZOD8EMT18GGRDM196O,3SV44,3SV44,34V1S5K3G12NZOD8EMT18GGRDM196O,34V1S5K3G12NZOD8EMT18GGRDM196O,338054,338054,1,0.03,"""",2145.399999976158,0,catchStim7,1,Clockwise,false,"""",0.3,60,0.001,"""","2021-12-31 03:30:01",192.145.117.242,"Mozilla/5.0 (Windows NT 10.0; Win64; x64) AppleWebKit/537.36 (KHTML, like Gecko) Chrome/96.0.4664.110 Safari/537.36",WebKit,Chrome,96.0.4664.110,Windows,10.0,ac0f2dffeffaa78d35a552e03d03f0a8
12,1,"""",test_procedure,confidence_rating,html-slider-response,101,301037,0.0-11.0-0.0-2.19,3SD15I2WEBVYX2RZ7BNPTJHHA9P63F,A2FGKKWP33DFWS,34V1S5K3G12NZOD8EMT18GGRDM196O,3SV44,3SV44,34V1S5K3G12NZOD8EMT18GGRDM196O,34V1S5K3G12NZOD8EMT18GGRDM196O,338054,338054,1,0.03,"""",2410.2999999523163,26,"<div id=""message-div""><p>How confident are you that your clockwise/counter-clockwise response just now was accurate? Please rate your confidence on the slider bar below.</p></div>","""","""","""",50,"""","""","""",26,"2021-12-31 03:30:01",192.145.117.242,"Mozilla/5.0 (Windows NT 10.0; Win64; x64) AppleWebKit/537.36 (KHTML, like Gecko) Chrome/96.0.4664.110 Safari/537.36",WebKit,Chrome,96.0.4664.110,Windows,10.0,ac0f2dffeffaa78d35a552e03d03f0a8
12,1,"""",test_procedure,fixation,html-keyboard-response,102,301539,0.0-11.0-0.0-0.20,3SD15I2WEBVYX2RZ7BNPTJHHA9P63F,A2FGKKWP33DFWS,34V1S5K3G12NZOD8EMT18GGRDM196O,3SV44,3SV44,34V1S5K3G12NZOD8EMT18GGRDM196O,34V1S5K3G12NZOD8EMT18GGRDM196O,338054,338054,1,0.03,"""",null,null,"<div class = fixationbox><div class = fixation>+</div></div>","""","""","""","""","""","""","""","""","2021-12-31 03:30:01",192.145.117.242,"Mozilla/5.0 (Windows NT 10.0; Win64; x64) AppleWebKit/537.36 (KHTML, like Gecko) Chrome/96.0.4664.110 Safari/537.36",WebKit,Chrome,96.0.4664.110,Windows,10.0,ac0f2dffeffaa78d35a552e03d03f0a8
12,1,"""",test_procedure,stim_test,canvas-button-response,103,303618,0.0-11.0-0.0-1.20,3SD15I2WEBVYX2RZ7BNPTJHHA9P63F,A2FGKKWP33DFWS,34V1S5K3G12NZOD8EMT18GGRDM196O,3SV44,3SV44,34V1S5K3G12NZOD8EMT18GGRDM196O,34V1S5K3G12NZOD8EMT18GGRDM196O,338054,338054,1,0.03,"""",2031.7999999523163,1,catchStim1,1,Clockwise,true,"""",0.01,60,0.6,"""","2021-12-31 03:30:01",192.145.117.242,"Mozilla/5.0 (Windows NT 10.0; Win64; x64) AppleWebKit/537.36 (KHTML, like Gecko) Chrome/96.0.4664.110 Safari/537.36",WebKit,Chrome,96.0.4664.110,Windows,10.0,ac0f2dffeffaa78d35a552e03d03f0a8
12,1,"""",test_procedure,confidence_rating,html-slider-response,104,306079,0.0-11.0-0.0-2.20,3SD15I2WEBVYX2RZ7BNPTJHHA9P63F,A2FGKKWP33DFWS,34V1S5K3G12NZOD8EMT18GGRDM196O,3SV44,3SV44,34V1S5K3G12NZOD8EMT18GGRDM196O,34V1S5K3G12NZOD8EMT18GGRDM196O,338054,338054,1,0.03,"""",2460.600000023842,87,"<div id=""message-div""><p>How confident are you that your clockwise/counter-clockwise response just now was accurate? Please rate your confidence on the slider bar below.</p></div>","""","""","""",50,"""","""","""",87,"2021-12-31 03:30:01",192.145.117.242,"Mozilla/5.0 (Windows NT 10.0; Win64; x64) AppleWebKit/537.36 (KHTML, like Gecko) Chrome/96.0.4664.110 Safari/537.36",WebKit,Chrome,96.0.4664.110,Windows,10.0,ac0f2dffeffaa78d35a552e03d03f0a8
12,1,"""",test_procedure,fixation,html-keyboard-response,105,306584,0.0-11.0-0.0-0.21,3SD15I2WEBVYX2RZ7BNPTJHHA9P63F,A2FGKKWP33DFWS,34V1S5K3G12NZOD8EMT18GGRDM196O,3SV44,3SV44,34V1S5K3G12NZOD8EMT18GGRDM196O,34V1S5K3G12NZOD8EMT18GGRDM196O,338054,338054,1,0.03,"""",null,null,"<div class = fixationbox><div class = fixation>+</div></div>","""","""","""","""","""","""","""","""","2021-12-31 03:30:01",192.145.117.242,"Mozilla/5.0 (Windows NT 10.0; Win64; x64) AppleWebKit/537.36 (KHTML, like Gecko) Chrome/96.0.4664.110 Safari/537.36",WebKit,Chrome,96.0.4664.110,Windows,10.0,ac0f2dffeffaa78d35a552e03d03f0a8
12,1,"""",test_procedure,stim_test,canvas-button-response,106,308252,0.0-11.0-0.0-1.21,3SD15I2WEBVYX2RZ7BNPTJHHA9P63F,A2FGKKWP33DFWS,34V1S5K3G12NZOD8EMT18GGRDM196O,3SV44,3SV44,34V1S5K3G12NZOD8EMT18GGRDM196O,34V1S5K3G12NZOD8EMT18GGRDM196O,338054,338054,1,0.03,"""",1627.1000000238419,0,catchStim3,1,Clockwise,false,"""",0.01,60,0.001,"""","2021-12-31 03:30:01",192.145.117.242,"Mozilla/5.0 (Windows NT 10.0; Win64; x64) AppleWebKit/537.36 (KHTML, like Gecko) Chrome/96.0.4664.110 Safari/537.36",WebKit,Chrome,96.0.4664.110,Windows,10.0,ac0f2dffeffaa78d35a552e03d03f0a8
12,1,"""",test_procedure,confidence_rating,html-slider-response,107,310919,0.0-11.0-0.0-2.21,3SD15I2WEBVYX2RZ7BNPTJHHA9P63F,A2FGKKWP33DFWS,34V1S5K3G12NZOD8EMT18GGRDM196O,3SV44,3SV44,34V1S5K3G12NZOD8EMT18GGRDM196O,34V1S5K3G12NZOD8EMT18GGRDM196O,338054,338054,1,0.03,"""",2666.399999976158,26,"<div id=""message-div""><p>How confident are you that your clockwise/counter-clockwise response just now was accurate? Please rate your confidence on the slider bar below.</p></div>","""","""","""",50,"""","""","""",26,"2021-12-31 03:30:01",192.145.117.242,"Mozilla/5.0 (Windows NT 10.0; Win64; x64) AppleWebKit/537.36 (KHTML, like Gecko) Chrome/96.0.4664.110 Safari/537.36",WebKit,Chrome,96.0.4664.110,Windows,10.0,ac0f2dffeffaa78d35a552e03d03f0a8
12,1,"""",test_procedure,fixation,html-keyboard-response,108,311421,0.0-11.0-0.0-0.22,3SD15I2WEBVYX2RZ7BNPTJHHA9P63F,A2FGKKWP33DFWS,34V1S5K3G12NZOD8EMT18GGRDM196O,3SV44,3SV44,34V1S5K3G12NZOD8EMT18GGRDM196O,34V1S5K3G12NZOD8EMT18GGRDM196O,338054,338054,1,0.03,"""",null,null,"<div class = fixationbox><div class = fixation>+</div></div>","""","""","""","""","""","""","""","""","2021-12-31 03:30:01",192.145.117.242,"Mozilla/5.0 (Windows NT 10.0; Win64; x64) AppleWebKit/537.36 (KHTML, like Gecko) Chrome/96.0.4664.110 Safari/537.36",WebKit,Chrome,96.0.4664.110,Windows,10.0,ac0f2dffeffaa78d35a552e03d03f0a8
12,1,"""",test_procedure,stim_test,canvas-button-response,109,313379,0.0-11.0-0.0-1.22,3SD15I2WEBVYX2RZ7BNPTJHHA9P63F,A2FGKKWP33DFWS,34V1S5K3G12NZOD8EMT18GGRDM196O,3SV44,3SV44,34V1S5K3G12NZOD8EMT18GGRDM196O,34V1S5K3G12NZOD8EMT18GGRDM196O,338054,338054,1,0.03,"""",1914.3999999761581,1,stim3,1,Clockwise,true,"""",0.3,60,"""","""","2021-12-31 03:30:01",192.145.117.242,"Mozilla/5.0 (Windows NT 10.0; Win64; x64) AppleWebKit/537.36 (KHTML, like Gecko) Chrome/96.0.4664.110 Safari/537.36",WebKit,Chrome,96.0.4664.110,Windows,10.0,ac0f2dffeffaa78d35a552e03d03f0a8
12,1,"""",test_procedure,confidence_rating,html-slider-response,110,318003,0.0-11.0-0.0-2.22,3SD15I2WEBVYX2RZ7BNPTJHHA9P63F,A2FGKKWP33DFWS,34V1S5K3G12NZOD8EMT18GGRDM196O,3SV44,3SV44,34V1S5K3G12NZOD8EMT18GGRDM196O,34V1S5K3G12NZOD8EMT18GGRDM196O,338054,338054,1,0.03,"""",4620.5,24,"<div id=""message-div""><p>How confident are you that your clockwise/counter-clockwise response just now was accurate? Please rate your confidence on the slider bar below.</p></div>","""","""","""",50,"""","""","""",24,"2021-12-31 03:30:01",192.145.117.242,"Mozilla/5.0 (Windows NT 10.0; Win64; x64) AppleWebKit/537.36 (KHTML, like Gecko) Chrome/96.0.4664.110 Safari/537.36",WebKit,Chrome,96.0.4664.110,Windows,10.0,ac0f2dffeffaa78d35a552e03d03f0a8
12,1,"""",test_procedure,fixation,html-keyboard-response,111,318505,0.0-11.0-0.0-0.23,3SD15I2WEBVYX2RZ7BNPTJHHA9P63F,A2FGKKWP33DFWS,34V1S5K3G12NZOD8EMT18GGRDM196O,3SV44,3SV44,34V1S5K3G12NZOD8EMT18GGRDM196O,34V1S5K3G12NZOD8EMT18GGRDM196O,338054,338054,1,0.03,"""",null,null,"<div class = fixationbox><div class = fixation>+</div></div>","""","""","""","""","""","""","""","""","2021-12-31 03:30:01",192.145.117.242,"Mozilla/5.0 (Windows NT 10.0; Win64; x64) AppleWebKit/537.36 (KHTML, like Gecko) Chrome/96.0.4664.110 Safari/537.36",WebKit,Chrome,96.0.4664.110,Windows,10.0,ac0f2dffeffaa78d35a552e03d03f0a8
12,1,"""",test_procedure,stim_test,canvas-button-response,112,320989,0.0-11.0-0.0-1.23,3SD15I2WEBVYX2RZ7BNPTJHHA9P63F,A2FGKKWP33DFWS,34V1S5K3G12NZOD8EMT18GGRDM196O,3SV44,3SV44,34V1S5K3G12NZOD8EMT18GGRDM196O,34V1S5K3G12NZOD8EMT18GGRDM196O,338054,338054,1,0.03,"""",2442.5,1,stim3,1,Clockwise,true,"""",0.3,60,"""","""","2021-12-31 03:30:01",192.145.117.242,"Mozilla/5.0 (Windows NT 10.0; Win64; x64) AppleWebKit/537.36 (KHTML, like Gecko) Chrome/96.0.4664.110 Safari/537.36",WebKit,Chrome,96.0.4664.110,Windows,10.0,ac0f2dffeffaa78d35a552e03d03f0a8
12,1,"""",test_procedure,confidence_rating,html-slider-response,113,324845,0.0-11.0-0.0-2.23,3SD15I2WEBVYX2RZ7BNPTJHHA9P63F,A2FGKKWP33DFWS,34V1S5K3G12NZOD8EMT18GGRDM196O,3SV44,3SV44,34V1S5K3G12NZOD8EMT18GGRDM196O,34V1S5K3G12NZOD8EMT18GGRDM196O,338054,338054,1,0.03,"""",3852.399999976158,39,"<div id=""message-div""><p>How confident are you that your clockwise/counter-clockwise response just now was accurate? Please rate your confidence on the slider bar below.</p></div>","""","""","""",50,"""","""","""",39,"2021-12-31 03:30:01",192.145.117.242,"Mozilla/5.0 (Windows NT 10.0; Win64; x64) AppleWebKit/537.36 (KHTML, like Gecko) Chrome/96.0.4664.110 Safari/537.36",WebKit,Chrome,96.0.4664.110,Windows,10.0,ac0f2dffeffaa78d35a552e03d03f0a8
12,1,"""",test_procedure,rest_block,html-button-response,114,331432,0.0-11.0-0.0-3.23-0.23,3SD15I2WEBVYX2RZ7BNPTJHHA9P63F,A2FGKKWP33DFWS,34V1S5K3G12NZOD8EMT18GGRDM196O,3SV44,3SV44,34V1S5K3G12NZOD8EMT18GGRDM196O,34V1S5K3G12NZOD8EMT18GGRDM196O,338054,338054,1,0.03,"""",6583.799999952316,0,"[""<p>You responded correctly on 66.67% of the trials in the previous section.</p><p>Time to take a break!</p><p>Once you're ready, press the \"Continue\" button to continue.</p>""]","""","""","""","""","""","""","""","""","2021-12-31 03:30:01",192.145.117.242,"Mozilla/5.0 (Windows NT 10.0; Win64; x64) AppleWebKit/537.36 (KHTML, like Gecko) Chrome/96.0.4664.110 Safari/537.36",WebKit,Chrome,96.0.4664.110,Windows,10.0,ac0f2dffeffaa78d35a552e03d03f0a8
12,1,"""",test_procedure,fixation,html-keyboard-response,115,331936,0.0-11.0-0.1-0.24,3SD15I2WEBVYX2RZ7BNPTJHHA9P63F,A2FGKKWP33DFWS,34V1S5K3G12NZOD8EMT18GGRDM196O,3SV44,3SV44,34V1S5K3G12NZOD8EMT18GGRDM196O,34V1S5K3G12NZOD8EMT18GGRDM196O,338054,338054,1,0.03,"""",null,null,"<div class = fixationbox><div class = fixation>+</div></div>","""","""","""","""","""","""","""","""","2021-12-31 03:30:01",192.145.117.242,"Mozilla/5.0 (Windows NT 10.0; Win64; x64) AppleWebKit/537.36 (KHTML, like Gecko) Chrome/96.0.4664.110 Safari/537.36",WebKit,Chrome,96.0.4664.110,Windows,10.0,ac0f2dffeffaa78d35a552e03d03f0a8
12,1,"""",test_procedure,stim_test,canvas-button-response,116,335273,0.0-11.0-0.1-1.24,3SD15I2WEBVYX2RZ7BNPTJHHA9P63F,A2FGKKWP33DFWS,34V1S5K3G12NZOD8EMT18GGRDM196O,3SV44,3SV44,34V1S5K3G12NZOD8EMT18GGRDM196O,34V1S5K3G12NZOD8EMT18GGRDM196O,338054,338054,1,0.03,"""",3297.100000023842,0,stim3,1,Clockwise,false,"""",0.3,60,"""","""","2021-12-31 03:30:01",192.145.117.242,"Mozilla/5.0 (Windows NT 10.0; Win64; x64) AppleWebKit/537.36 (KHTML, like Gecko) Chrome/96.0.4664.110 Safari/537.36",WebKit,Chrome,96.0.4664.110,Windows,10.0,ac0f2dffeffaa78d35a552e03d03f0a8
12,1,"""",test_procedure,confidence_rating,html-slider-response,117,337562,0.0-11.0-0.1-2.24,3SD15I2WEBVYX2RZ7BNPTJHHA9P63F,A2FGKKWP33DFWS,34V1S5K3G12NZOD8EMT18GGRDM196O,3SV44,3SV44,34V1S5K3G12NZOD8EMT18GGRDM196O,34V1S5K3G12NZOD8EMT18GGRDM196O,338054,338054,1,0.03,"""",2287,28,"<div id=""message-div""><p>How confident are you that your clockwise/counter-clockwise response just now was accurate? Please rate your confidence on the slider bar below.</p></div>","""","""","""",50,"""","""","""",28,"2021-12-31 03:30:01",192.145.117.242,"Mozilla/5.0 (Windows NT 10.0; Win64; x64) AppleWebKit/537.36 (KHTML, like Gecko) Chrome/96.0.4664.110 Safari/537.36",WebKit,Chrome,96.0.4664.110,Windows,10.0,ac0f2dffeffaa78d35a552e03d03f0a8
12,1,"""",test_procedure,fixation,html-keyboard-response,118,338067,0.0-11.0-0.1-0.25,3SD15I2WEBVYX2RZ7BNPTJHHA9P63F,A2FGKKWP33DFWS,34V1S5K3G12NZOD8EMT18GGRDM196O,3SV44,3SV44,34V1S5K3G12NZOD8EMT18GGRDM196O,34V1S5K3G12NZOD8EMT18GGRDM196O,338054,338054,1,0.03,"""",null,null,"<div class = fixationbox><div class = fixation>+</div></div>","""","""","""","""","""","""","""","""","2021-12-31 03:30:01",192.145.117.242,"Mozilla/5.0 (Windows NT 10.0; Win64; x64) AppleWebKit/537.36 (KHTML, like Gecko) Chrome/96.0.4664.110 Safari/537.36",WebKit,Chrome,96.0.4664.110,Windows,10.0,ac0f2dffeffaa78d35a552e03d03f0a8
12,1,"""",test_procedure,stim_test,canvas-button-response,119,340952,0.0-11.0-0.1-1.25,3SD15I2WEBVYX2RZ7BNPTJHHA9P63F,A2FGKKWP33DFWS,34V1S5K3G12NZOD8EMT18GGRDM196O,3SV44,3SV44,34V1S5K3G12NZOD8EMT18GGRDM196O,34V1S5K3G12NZOD8EMT18GGRDM196O,338054,338054,1,0.03,"""",2845,0,catchStim2,0,Counter-clockwise,true,"""",0.01,120,0.6,"""","2021-12-31 03:30:01",192.145.117.242,"Mozilla/5.0 (Windows NT 10.0; Win64; x64) AppleWebKit/537.36 (KHTML, like Gecko) Chrome/96.0.4664.110 Safari/537.36",WebKit,Chrome,96.0.4664.110,Windows,10.0,ac0f2dffeffaa78d35a552e03d03f0a8
12,1,"""",test_procedure,confidence_rating,html-slider-response,120,343358,0.0-11.0-0.1-2.25,3SD15I2WEBVYX2RZ7BNPTJHHA9P63F,A2FGKKWP33DFWS,34V1S5K3G12NZOD8EMT18GGRDM196O,3SV44,3SV44,34V1S5K3G12NZOD8EMT18GGRDM196O,34V1S5K3G12NZOD8EMT18GGRDM196O,338054,338054,1,0.03,"""",2404.9000000953674,85,"<div id=""message-div""><p>How confident are you that your clockwise/counter-clockwise response just now was accurate? Please rate your confidence on the slider bar below.</p></div>","""","""","""",50,"""","""","""",85,"2021-12-31 03:30:01",192.145.117.242,"Mozilla/5.0 (Windows NT 10.0; Win64; x64) AppleWebKit/537.36 (KHTML, like Gecko) Chrome/96.0.4664.110 Safari/537.36",WebKit,Chrome,96.0.4664.110,Windows,10.0,ac0f2dffeffaa78d35a552e03d03f0a8
12,1,"""",test_procedure,fixation,html-keyboard-response,121,343863,0.0-11.0-0.1-0.26,3SD15I2WEBVYX2RZ7BNPTJHHA9P63F,A2FGKKWP33DFWS,34V1S5K3G12NZOD8EMT18GGRDM196O,3SV44,3SV44,34V1S5K3G12NZOD8EMT18GGRDM196O,34V1S5K3G12NZOD8EMT18GGRDM196O,338054,338054,1,0.03,"""",null,null,"<div class = fixationbox><div class = fixation>+</div></div>","""","""","""","""","""","""","""","""","2021-12-31 03:30:01",192.145.117.242,"Mozilla/5.0 (Windows NT 10.0; Win64; x64) AppleWebKit/537.36 (KHTML, like Gecko) Chrome/96.0.4664.110 Safari/537.36",WebKit,Chrome,96.0.4664.110,Windows,10.0,ac0f2dffeffaa78d35a552e03d03f0a8
12,1,"""",test_procedure,stim_test,canvas-button-response,122,345554,0.0-11.0-0.1-1.26,3SD15I2WEBVYX2RZ7BNPTJHHA9P63F,A2FGKKWP33DFWS,34V1S5K3G12NZOD8EMT18GGRDM196O,3SV44,3SV44,34V1S5K3G12NZOD8EMT18GGRDM196O,34V1S5K3G12NZOD8EMT18GGRDM196O,338054,338054,1,0.03,"""",1648.8999999761581,0,catchStim6,0,Counter-clockwise,true,"""",0.3,120,0.6,"""","2021-12-31 03:30:01",192.145.117.242,"Mozilla/5.0 (Windows NT 10.0; Win64; x64) AppleWebKit/537.36 (KHTML, like Gecko) Chrome/96.0.4664.110 Safari/537.36",WebKit,Chrome,96.0.4664.110,Windows,10.0,ac0f2dffeffaa78d35a552e03d03f0a8
12,1,"""",test_procedure,confidence_rating,html-slider-response,123,347983,0.0-11.0-0.1-2.26,3SD15I2WEBVYX2RZ7BNPTJHHA9P63F,A2FGKKWP33DFWS,34V1S5K3G12NZOD8EMT18GGRDM196O,3SV44,3SV44,34V1S5K3G12NZOD8EMT18GGRDM196O,34V1S5K3G12NZOD8EMT18GGRDM196O,338054,338054,1,0.03,"""",2428.7999999523163,91,"<div id=""message-div""><p>How confident are you that your clockwise/counter-clockwise response just now was accurate? Please rate your confidence on the slider bar below.</p></div>","""","""","""",50,"""","""","""",91,"2021-12-31 03:30:01",192.145.117.242,"Mozilla/5.0 (Windows NT 10.0; Win64; x64) AppleWebKit/537.36 (KHTML, like Gecko) Chrome/96.0.4664.110 Safari/537.36",WebKit,Chrome,96.0.4664.110,Windows,10.0,ac0f2dffeffaa78d35a552e03d03f0a8
12,1,"""",test_procedure,fixation,html-keyboard-response,124,348485,0.0-11.0-0.1-0.27,3SD15I2WEBVYX2RZ7BNPTJHHA9P63F,A2FGKKWP33DFWS,34V1S5K3G12NZOD8EMT18GGRDM196O,3SV44,3SV44,34V1S5K3G12NZOD8EMT18GGRDM196O,34V1S5K3G12NZOD8EMT18GGRDM196O,338054,338054,1,0.03,"""",null,null,"<div class = fixationbox><div class = fixation>+</div></div>","""","""","""","""","""","""","""","""","2021-12-31 03:30:01",192.145.117.242,"Mozilla/5.0 (Windows NT 10.0; Win64; x64) AppleWebKit/537.36 (KHTML, like Gecko) Chrome/96.0.4664.110 Safari/537.36",WebKit,Chrome,96.0.4664.110,Windows,10.0,ac0f2dffeffaa78d35a552e03d03f0a8
12,1,"""",test_procedure,stim_test,canvas-button-response,125,350606,0.0-11.0-0.1-1.27,3SD15I2WEBVYX2RZ7BNPTJHHA9P63F,A2FGKKWP33DFWS,34V1S5K3G12NZOD8EMT18GGRDM196O,3SV44,3SV44,34V1S5K3G12NZOD8EMT18GGRDM196O,34V1S5K3G12NZOD8EMT18GGRDM196O,338054,338054,1,0.03,"""",2080.3000000715256,1,stim4,0,Counter-clockwise,false,"""",0.3,120,"""","""","2021-12-31 03:30:01",192.145.117.242,"Mozilla/5.0 (Windows NT 10.0; Win64; x64) AppleWebKit/537.36 (KHTML, like Gecko) Chrome/96.0.4664.110 Safari/537.36",WebKit,Chrome,96.0.4664.110,Windows,10.0,ac0f2dffeffaa78d35a552e03d03f0a8
12,1,"""",test_procedure,confidence_rating,html-slider-response,126,354275,0.0-11.0-0.1-2.27,3SD15I2WEBVYX2RZ7BNPTJHHA9P63F,A2FGKKWP33DFWS,34V1S5K3G12NZOD8EMT18GGRDM196O,3SV44,3SV44,34V1S5K3G12NZOD8EMT18GGRDM196O,34V1S5K3G12NZOD8EMT18GGRDM196O,338054,338054,1,0.03,"""",3665.5,24,"<div id=""message-div""><p>How confident are you that your clockwise/counter-clockwise response just now was accurate? Please rate your confidence on the slider bar below.</p></div>","""","""","""",50,"""","""","""",24,"2021-12-31 03:30:01",192.145.117.242,"Mozilla/5.0 (Windows NT 10.0; Win64; x64) AppleWebKit/537.36 (KHTML, like Gecko) Chrome/96.0.4664.110 Safari/537.36",WebKit,Chrome,96.0.4664.110,Windows,10.0,ac0f2dffeffaa78d35a552e03d03f0a8
12,1,"""",test_procedure,fixation,html-keyboard-response,127,354778,0.0-11.0-0.1-0.28,3SD15I2WEBVYX2RZ7BNPTJHHA9P63F,A2FGKKWP33DFWS,34V1S5K3G12NZOD8EMT18GGRDM196O,3SV44,3SV44,34V1S5K3G12NZOD8EMT18GGRDM196O,34V1S5K3G12NZOD8EMT18GGRDM196O,338054,338054,1,0.03,"""",null,null,"<div class = fixationbox><div class = fixation>+</div></div>","""","""","""","""","""","""","""","""","2021-12-31 03:30:01",192.145.117.242,"Mozilla/5.0 (Windows NT 10.0; Win64; x64) AppleWebKit/537.36 (KHTML, like Gecko) Chrome/96.0.4664.110 Safari/537.36",WebKit,Chrome,96.0.4664.110,Windows,10.0,ac0f2dffeffaa78d35a552e03d03f0a8
12,1,"""",test_procedure,stim_test,canvas-button-response,128,357202,0.0-11.0-0.1-1.28,3SD15I2WEBVYX2RZ7BNPTJHHA9P63F,A2FGKKWP33DFWS,34V1S5K3G12NZOD8EMT18GGRDM196O,3SV44,3SV44,34V1S5K3G12NZOD8EMT18GGRDM196O,34V1S5K3G12NZOD8EMT18GGRDM196O,338054,338054,1,0.03,"""",2381,0,stim4,0,Counter-clockwise,true,"""",0.3,120,"""","""","2021-12-31 03:30:01",192.145.117.242,"Mozilla/5.0 (Windows NT 10.0; Win64; x64) AppleWebKit/537.36 (KHTML, like Gecko) Chrome/96.0.4664.110 Safari/537.36",WebKit,Chrome,96.0.4664.110,Windows,10.0,ac0f2dffeffaa78d35a552e03d03f0a8
12,1,"""",test_procedure,confidence_rating,html-slider-response,129,359455,0.0-11.0-0.1-2.28,3SD15I2WEBVYX2RZ7BNPTJHHA9P63F,A2FGKKWP33DFWS,34V1S5K3G12NZOD8EMT18GGRDM196O,3SV44,3SV44,34V1S5K3G12NZOD8EMT18GGRDM196O,34V1S5K3G12NZOD8EMT18GGRDM196O,338054,338054,1,0.03,"""",2249.7999999523163,33,"<div id=""message-div""><p>How confident are you that your clockwise/counter-clockwise response just now was accurate? Please rate your confidence on the slider bar below.</p></div>","""","""","""",50,"""","""","""",33,"2021-12-31 03:30:01",192.145.117.242,"Mozilla/5.0 (Windows NT 10.0; Win64; x64) AppleWebKit/537.36 (KHTML, like Gecko) Chrome/96.0.4664.110 Safari/537.36",WebKit,Chrome,96.0.4664.110,Windows,10.0,ac0f2dffeffaa78d35a552e03d03f0a8
12,1,"""",test_procedure,fixation,html-keyboard-response,130,359957,0.0-11.0-0.1-0.29,3SD15I2WEBVYX2RZ7BNPTJHHA9P63F,A2FGKKWP33DFWS,34V1S5K3G12NZOD8EMT18GGRDM196O,3SV44,3SV44,34V1S5K3G12NZOD8EMT18GGRDM196O,34V1S5K3G12NZOD8EMT18GGRDM196O,338054,338054,1,0.03,"""",null,null,"<div class = fixationbox><div class = fixation>+</div></div>","""","""","""","""","""","""","""","""","2021-12-31 03:30:01",192.145.117.242,"Mozilla/5.0 (Windows NT 10.0; Win64; x64) AppleWebKit/537.36 (KHTML, like Gecko) Chrome/96.0.4664.110 Safari/537.36",WebKit,Chrome,96.0.4664.110,Windows,10.0,ac0f2dffeffaa78d35a552e03d03f0a8
12,1,"""",test_procedure,stim_test,canvas-button-response,131,363543,0.0-11.0-0.1-1.29,3SD15I2WEBVYX2RZ7BNPTJHHA9P63F,A2FGKKWP33DFWS,34V1S5K3G12NZOD8EMT18GGRDM196O,3SV44,3SV44,34V1S5K3G12NZOD8EMT18GGRDM196O,34V1S5K3G12NZOD8EMT18GGRDM196O,338054,338054,1,0.03,"""",3546,0,stim3,1,Clockwise,false,"""",0.3,60,"""","""","2021-12-31 03:30:01",192.145.117.242,"Mozilla/5.0 (Windows NT 10.0; Win64; x64) AppleWebKit/537.36 (KHTML, like Gecko) Chrome/96.0.4664.110 Safari/537.36",WebKit,Chrome,96.0.4664.110,Windows,10.0,ac0f2dffeffaa78d35a552e03d03f0a8
12,1,"""",test_procedure,confidence_rating,html-slider-response,132,365998,0.0-11.0-0.1-2.29,3SD15I2WEBVYX2RZ7BNPTJHHA9P63F,A2FGKKWP33DFWS,34V1S5K3G12NZOD8EMT18GGRDM196O,3SV44,3SV44,34V1S5K3G12NZOD8EMT18GGRDM196O,34V1S5K3G12NZOD8EMT18GGRDM196O,338054,338054,1,0.03,"""",2450.399999976158,25,"<div id=""message-div""><p>How confident are you that your clockwise/counter-clockwise response just now was accurate? Please rate your confidence on the slider bar below.</p></div>","""","""","""",50,"""","""","""",25,"2021-12-31 03:30:01",192.145.117.242,"Mozilla/5.0 (Windows NT 10.0; Win64; x64) AppleWebKit/537.36 (KHTML, like Gecko) Chrome/96.0.4664.110 Safari/537.36",WebKit,Chrome,96.0.4664.110,Windows,10.0,ac0f2dffeffaa78d35a552e03d03f0a8
12,1,"""",test_procedure,fixation,html-keyboard-response,133,366500,0.0-11.0-0.1-0.30,3SD15I2WEBVYX2RZ7BNPTJHHA9P63F,A2FGKKWP33DFWS,34V1S5K3G12NZOD8EMT18GGRDM196O,3SV44,3SV44,34V1S5K3G12NZOD8EMT18GGRDM196O,34V1S5K3G12NZOD8EMT18GGRDM196O,338054,338054,1,0.03,"""",null,null,"<div class = fixationbox><div class = fixation>+</div></div>","""","""","""","""","""","""","""","""","2021-12-31 03:30:01",192.145.117.242,"Mozilla/5.0 (Windows NT 10.0; Win64; x64) AppleWebKit/537.36 (KHTML, like Gecko) Chrome/96.0.4664.110 Safari/537.36",WebKit,Chrome,96.0.4664.110,Windows,10.0,ac0f2dffeffaa78d35a552e03d03f0a8
12,1,"""",test_procedure,stim_test,canvas-button-response,134,369158,0.0-11.0-0.1-1.30,3SD15I2WEBVYX2RZ7BNPTJHHA9P63F,A2FGKKWP33DFWS,34V1S5K3G12NZOD8EMT18GGRDM196O,3SV44,3SV44,34V1S5K3G12NZOD8EMT18GGRDM196O,34V1S5K3G12NZOD8EMT18GGRDM196O,338054,338054,1,0.03,"""",2613.7999999523163,1,stim2,0,Counter-clockwise,false,"""",0.01,120,"""","""","2021-12-31 03:30:01",192.145.117.242,"Mozilla/5.0 (Windows NT 10.0; Win64; x64) AppleWebKit/537.36 (KHTML, like Gecko) Chrome/96.0.4664.110 Safari/537.36",WebKit,Chrome,96.0.4664.110,Windows,10.0,ac0f2dffeffaa78d35a552e03d03f0a8
12,1,"""",test_procedure,confidence_rating,html-slider-response,135,374393,0.0-11.0-0.1-2.30,3SD15I2WEBVYX2RZ7BNPTJHHA9P63F,A2FGKKWP33DFWS,34V1S5K3G12NZOD8EMT18GGRDM196O,3SV44,3SV44,34V1S5K3G12NZOD8EMT18GGRDM196O,34V1S5K3G12NZOD8EMT18GGRDM196O,338054,338054,1,0.03,"""",5234.699999928474,22,"<div id=""message-div""><p>How confident are you that your clockwise/counter-clockwise response just now was accurate? Please rate your confidence on the slider bar below.</p></div>","""","""","""",50,"""","""","""",22,"2021-12-31 03:30:01",192.145.117.242,"Mozilla/5.0 (Windows NT 10.0; Win64; x64) AppleWebKit/537.36 (KHTML, like Gecko) Chrome/96.0.4664.110 Safari/537.36",WebKit,Chrome,96.0.4664.110,Windows,10.0,ac0f2dffeffaa78d35a552e03d03f0a8
12,1,"""",test_procedure,fixation,html-keyboard-response,136,374899,0.0-11.0-0.1-0.31,3SD15I2WEBVYX2RZ7BNPTJHHA9P63F,A2FGKKWP33DFWS,34V1S5K3G12NZOD8EMT18GGRDM196O,3SV44,3SV44,34V1S5K3G12NZOD8EMT18GGRDM196O,34V1S5K3G12NZOD8EMT18GGRDM196O,338054,338054,1,0.03,"""",null,null,"<div class = fixationbox><div class = fixation>+</div></div>","""","""","""","""","""","""","""","""","2021-12-31 03:30:01",192.145.117.242,"Mozilla/5.0 (Windows NT 10.0; Win64; x64) AppleWebKit/537.36 (KHTML, like Gecko) Chrome/96.0.4664.110 Safari/537.36",WebKit,Chrome,96.0.4664.110,Windows,10.0,ac0f2dffeffaa78d35a552e03d03f0a8
12,1,"""",test_procedure,stim_test,canvas-button-response,137,376609,0.0-11.0-0.1-1.31,3SD15I2WEBVYX2RZ7BNPTJHHA9P63F,A2FGKKWP33DFWS,34V1S5K3G12NZOD8EMT18GGRDM196O,3SV44,3SV44,34V1S5K3G12NZOD8EMT18GGRDM196O,34V1S5K3G12NZOD8EMT18GGRDM196O,338054,338054,1,0.03,"""",1662.1000000238419,0,stim1,1,Clockwise,false,"""",0.01,60,"""","""","2021-12-31 03:30:01",192.145.117.242,"Mozilla/5.0 (Windows NT 10.0; Win64; x64) AppleWebKit/537.36 (KHTML, like Gecko) Chrome/96.0.4664.110 Safari/537.36",WebKit,Chrome,96.0.4664.110,Windows,10.0,ac0f2dffeffaa78d35a552e03d03f0a8
12,1,"""",test_procedure,confidence_rating,html-slider-response,138,378647,0.0-11.0-0.1-2.31,3SD15I2WEBVYX2RZ7BNPTJHHA9P63F,A2FGKKWP33DFWS,34V1S5K3G12NZOD8EMT18GGRDM196O,3SV44,3SV44,34V1S5K3G12NZOD8EMT18GGRDM196O,34V1S5K3G12NZOD8EMT18GGRDM196O,338054,338054,1,0.03,"""",2036.7999999523163,26,"<div id=""message-div""><p>How confident are you that your clockwise/counter-clockwise response just now was accurate? Please rate your confidence on the slider bar below.</p></div>","""","""","""",50,"""","""","""",26,"2021-12-31 03:30:01",192.145.117.242,"Mozilla/5.0 (Windows NT 10.0; Win64; x64) AppleWebKit/537.36 (KHTML, like Gecko) Chrome/96.0.4664.110 Safari/537.36",WebKit,Chrome,96.0.4664.110,Windows,10.0,ac0f2dffeffaa78d35a552e03d03f0a8
12,1,"""",test_procedure,fixation,html-keyboard-response,139,379149,0.0-11.0-0.1-0.32,3SD15I2WEBVYX2RZ7BNPTJHHA9P63F,A2FGKKWP33DFWS,34V1S5K3G12NZOD8EMT18GGRDM196O,3SV44,3SV44,34V1S5K3G12NZOD8EMT18GGRDM196O,34V1S5K3G12NZOD8EMT18GGRDM196O,338054,338054,1,0.03,"""",null,null,"<div class = fixationbox><div class = fixation>+</div></div>","""","""","""","""","""","""","""","""","2021-12-31 03:30:01",192.145.117.242,"Mozilla/5.0 (Windows NT 10.0; Win64; x64) AppleWebKit/537.36 (KHTML, like Gecko) Chrome/96.0.4664.110 Safari/537.36",WebKit,Chrome,96.0.4664.110,Windows,10.0,ac0f2dffeffaa78d35a552e03d03f0a8
12,1,"""",test_procedure,stim_test,canvas-button-response,140,382631,0.0-11.0-0.1-1.32,3SD15I2WEBVYX2RZ7BNPTJHHA9P63F,A2FGKKWP33DFWS,34V1S5K3G12NZOD8EMT18GGRDM196O,3SV44,3SV44,34V1S5K3G12NZOD8EMT18GGRDM196O,34V1S5K3G12NZOD8EMT18GGRDM196O,338054,338054,1,0.03,"""",3438.0999999046326,0,stim4,0,Counter-clockwise,true,"""",0.3,120,"""","""","2021-12-31 03:30:01",192.145.117.242,"Mozilla/5.0 (Windows NT 10.0; Win64; x64) AppleWebKit/537.36 (KHTML, like Gecko) Chrome/96.0.4664.110 Safari/537.36",WebKit,Chrome,96.0.4664.110,Windows,10.0,ac0f2dffeffaa78d35a552e03d03f0a8
12,1,"""",test_procedure,confidence_rating,html-slider-response,141,384943,0.0-11.0-0.1-2.32,3SD15I2WEBVYX2RZ7BNPTJHHA9P63F,A2FGKKWP33DFWS,34V1S5K3G12NZOD8EMT18GGRDM196O,3SV44,3SV44,34V1S5K3G12NZOD8EMT18GGRDM196O,34V1S5K3G12NZOD8EMT18GGRDM196O,338054,338054,1,0.03,"""",2307.9000000953674,30,"<div id=""message-div""><p>How confident are you that your clockwise/counter-clockwise response just now was accurate? Please rate your confidence on the slider bar below.</p></div>","""","""","""",50,"""","""","""",30,"2021-12-31 03:30:01",192.145.117.242,"Mozilla/5.0 (Windows NT 10.0; Win64; x64) AppleWebKit/537.36 (KHTML, like Gecko) Chrome/96.0.4664.110 Safari/537.36",WebKit,Chrome,96.0.4664.110,Windows,10.0,ac0f2dffeffaa78d35a552e03d03f0a8
12,1,"""",test_procedure,fixation,html-keyboard-response,142,385444,0.0-11.0-0.1-0.33,3SD15I2WEBVYX2RZ7BNPTJHHA9P63F,A2FGKKWP33DFWS,34V1S5K3G12NZOD8EMT18GGRDM196O,3SV44,3SV44,34V1S5K3G12NZOD8EMT18GGRDM196O,34V1S5K3G12NZOD8EMT18GGRDM196O,338054,338054,1,0.03,"""",null,null,"<div class = fixationbox><div class = fixation>+</div></div>","""","""","""","""","""","""","""","""","2021-12-31 03:30:01",192.145.117.242,"Mozilla/5.0 (Windows NT 10.0; Win64; x64) AppleWebKit/537.36 (KHTML, like Gecko) Chrome/96.0.4664.110 Safari/537.36",WebKit,Chrome,96.0.4664.110,Windows,10.0,ac0f2dffeffaa78d35a552e03d03f0a8
12,1,"""",test_procedure,stim_test,canvas-button-response,143,387823,0.0-11.0-0.1-1.33,3SD15I2WEBVYX2RZ7BNPTJHHA9P63F,A2FGKKWP33DFWS,34V1S5K3G12NZOD8EMT18GGRDM196O,3SV44,3SV44,34V1S5K3G12NZOD8EMT18GGRDM196O,34V1S5K3G12NZOD8EMT18GGRDM196O,338054,338054,1,0.03,"""",2327.5999999046326,0,stim3,1,Clockwise,false,"""",0.3,60,"""","""","2021-12-31 03:30:01",192.145.117.242,"Mozilla/5.0 (Windows NT 10.0; Win64; x64) AppleWebKit/537.36 (KHTML, like Gecko) Chrome/96.0.4664.110 Safari/537.36",WebKit,Chrome,96.0.4664.110,Windows,10.0,ac0f2dffeffaa78d35a552e03d03f0a8
12,1,"""",test_procedure,confidence_rating,html-slider-response,144,389765,0.0-11.0-0.1-2.33,3SD15I2WEBVYX2RZ7BNPTJHHA9P63F,A2FGKKWP33DFWS,34V1S5K3G12NZOD8EMT18GGRDM196O,3SV44,3SV44,34V1S5K3G12NZOD8EMT18GGRDM196O,34V1S5K3G12NZOD8EMT18GGRDM196O,338054,338054,1,0.03,"""",1940.5,23,"<div id=""message-div""><p>How confident are you that your clockwise/counter-clockwise response just now was accurate? Please rate your confidence on the slider bar below.</p></div>","""","""","""",50,"""","""","""",23,"2021-12-31 03:30:01",192.145.117.242,"Mozilla/5.0 (Windows NT 10.0; Win64; x64) AppleWebKit/537.36 (KHTML, like Gecko) Chrome/96.0.4664.110 Safari/537.36",WebKit,Chrome,96.0.4664.110,Windows,10.0,ac0f2dffeffaa78d35a552e03d03f0a8
12,1,"""",test_procedure,fixation,html-keyboard-response,145,390269,0.0-11.0-0.1-0.34,3SD15I2WEBVYX2RZ7BNPTJHHA9P63F,A2FGKKWP33DFWS,34V1S5K3G12NZOD8EMT18GGRDM196O,3SV44,3SV44,34V1S5K3G12NZOD8EMT18GGRDM196O,34V1S5K3G12NZOD8EMT18GGRDM196O,338054,338054,1,0.03,"""",null,null,"<div class = fixationbox><div class = fixation>+</div></div>","""","""","""","""","""","""","""","""","2021-12-31 03:30:01",192.145.117.242,"Mozilla/5.0 (Windows NT 10.0; Win64; x64) AppleWebKit/537.36 (KHTML, like Gecko) Chrome/96.0.4664.110 Safari/537.36",WebKit,Chrome,96.0.4664.110,Windows,10.0,ac0f2dffeffaa78d35a552e03d03f0a8
12,1,"""",test_procedure,stim_test,canvas-button-response,146,391889,0.0-11.0-0.1-1.34,3SD15I2WEBVYX2RZ7BNPTJHHA9P63F,A2FGKKWP33DFWS,34V1S5K3G12NZOD8EMT18GGRDM196O,3SV44,3SV44,34V1S5K3G12NZOD8EMT18GGRDM196O,34V1S5K3G12NZOD8EMT18GGRDM196O,338054,338054,1,0.03,"""",1577.5,0,catchStim3,1,Clockwise,false,"""",0.01,60,0.001,"""","2021-12-31 03:30:01",192.145.117.242,"Mozilla/5.0 (Windows NT 10.0; Win64; x64) AppleWebKit/537.36 (KHTML, like Gecko) Chrome/96.0.4664.110 Safari/537.36",WebKit,Chrome,96.0.4664.110,Windows,10.0,ac0f2dffeffaa78d35a552e03d03f0a8
12,1,"""",test_procedure,confidence_rating,html-slider-response,147,393851,0.0-11.0-0.1-2.34,3SD15I2WEBVYX2RZ7BNPTJHHA9P63F,A2FGKKWP33DFWS,34V1S5K3G12NZOD8EMT18GGRDM196O,3SV44,3SV44,34V1S5K3G12NZOD8EMT18GGRDM196O,34V1S5K3G12NZOD8EMT18GGRDM196O,338054,338054,1,0.03,"""",1960.7999999523163,24,"<div id=""message-div""><p>How confident are you that your clockwise/counter-clockwise response just now was accurate? Please rate your confidence on the slider bar below.</p></div>","""","""","""",50,"""","""","""",24,"2021-12-31 03:30:01",192.145.117.242,"Mozilla/5.0 (Windows NT 10.0; Win64; x64) AppleWebKit/537.36 (KHTML, like Gecko) Chrome/96.0.4664.110 Safari/537.36",WebKit,Chrome,96.0.4664.110,Windows,10.0,ac0f2dffeffaa78d35a552e03d03f0a8
12,1,"""",test_procedure,fixation,html-keyboard-response,148,394357,0.0-11.0-0.1-0.35,3SD15I2WEBVYX2RZ7BNPTJHHA9P63F,A2FGKKWP33DFWS,34V1S5K3G12NZOD8EMT18GGRDM196O,3SV44,3SV44,34V1S5K3G12NZOD8EMT18GGRDM196O,34V1S5K3G12NZOD8EMT18GGRDM196O,338054,338054,1,0.03,"""",null,null,"<div class = fixationbox><div class = fixation>+</div></div>","""","""","""","""","""","""","""","""","2021-12-31 03:30:01",192.145.117.242,"Mozilla/5.0 (Windows NT 10.0; Win64; x64) AppleWebKit/537.36 (KHTML, like Gecko) Chrome/96.0.4664.110 Safari/537.36",WebKit,Chrome,96.0.4664.110,Windows,10.0,ac0f2dffeffaa78d35a552e03d03f0a8
12,1,"""",test_procedure,stim_test,canvas-button-response,149,395775,0.0-11.0-0.1-1.35,3SD15I2WEBVYX2RZ7BNPTJHHA9P63F,A2FGKKWP33DFWS,34V1S5K3G12NZOD8EMT18GGRDM196O,3SV44,3SV44,34V1S5K3G12NZOD8EMT18GGRDM196O,34V1S5K3G12NZOD8EMT18GGRDM196O,338054,338054,1,0.03,"""",1377.7999999523163,1,stim2,0,Counter-clockwise,false,"""",0.01,120,"""","""","2021-12-31 03:30:01",192.145.117.242,"Mozilla/5.0 (Windows NT 10.0; Win64; x64) AppleWebKit/537.36 (KHTML, like Gecko) Chrome/96.0.4664.110 Safari/537.36",WebKit,Chrome,96.0.4664.110,Windows,10.0,ac0f2dffeffaa78d35a552e03d03f0a8
12,1,"""",test_procedure,confidence_rating,html-slider-response,150,398063,0.0-11.0-0.1-2.35,3SD15I2WEBVYX2RZ7BNPTJHHA9P63F,A2FGKKWP33DFWS,34V1S5K3G12NZOD8EMT18GGRDM196O,3SV44,3SV44,34V1S5K3G12NZOD8EMT18GGRDM196O,34V1S5K3G12NZOD8EMT18GGRDM196O,338054,338054,1,0.03,"""",2283.3000000715256,25,"<div id=""message-div""><p>How confident are you that your clockwise/counter-clockwise response just now was accurate? Please rate your confidence on the slider bar below.</p></div>","""","""","""",50,"""","""","""",25,"2021-12-31 03:30:01",192.145.117.242,"Mozilla/5.0 (Windows NT 10.0; Win64; x64) AppleWebKit/537.36 (KHTML, like Gecko) Chrome/96.0.4664.110 Safari/537.36",WebKit,Chrome,96.0.4664.110,Windows,10.0,ac0f2dffeffaa78d35a552e03d03f0a8
12,1,"""",test_procedure,fixation,html-keyboard-response,151,398565,0.0-11.0-0.1-0.36,3SD15I2WEBVYX2RZ7BNPTJHHA9P63F,A2FGKKWP33DFWS,34V1S5K3G12NZOD8EMT18GGRDM196O,3SV44,3SV44,34V1S5K3G12NZOD8EMT18GGRDM196O,34V1S5K3G12NZOD8EMT18GGRDM196O,338054,338054,1,0.03,"""",null,null,"<div class = fixationbox><div class = fixation>+</div></div>","""","""","""","""","""","""","""","""","2021-12-31 03:30:01",192.145.117.242,"Mozilla/5.0 (Windows NT 10.0; Win64; x64) AppleWebKit/537.36 (KHTML, like Gecko) Chrome/96.0.4664.110 Safari/537.36",WebKit,Chrome,96.0.4664.110,Windows,10.0,ac0f2dffeffaa78d35a552e03d03f0a8
12,1,"""",test_procedure,stim_test,canvas-button-response,152,404017,0.0-11.0-0.1-1.36,3SD15I2WEBVYX2RZ7BNPTJHHA9P63F,A2FGKKWP33DFWS,34V1S5K3G12NZOD8EMT18GGRDM196O,3SV44,3SV44,34V1S5K3G12NZOD8EMT18GGRDM196O,34V1S5K3G12NZOD8EMT18GGRDM196O,338054,338054,1,0.03,"""",5408.299999952316,1,catchStim5,1,Clockwise,true,"""",0.3,60,0.6,"""","2021-12-31 03:30:01",192.145.117.242,"Mozilla/5.0 (Windows NT 10.0; Win64; x64) AppleWebKit/537.36 (KHTML, like Gecko) Chrome/96.0.4664.110 Safari/537.36",WebKit,Chrome,96.0.4664.110,Windows,10.0,ac0f2dffeffaa78d35a552e03d03f0a8
12,1,"""",test_procedure,confidence_rating,html-slider-response,153,407787,0.0-11.0-0.1-2.36,3SD15I2WEBVYX2RZ7BNPTJHHA9P63F,A2FGKKWP33DFWS,34V1S5K3G12NZOD8EMT18GGRDM196O,3SV44,3SV44,34V1S5K3G12NZOD8EMT18GGRDM196O,34V1S5K3G12NZOD8EMT18GGRDM196O,338054,338054,1,0.03,"""",3765.3000000715256,81,"<div id=""message-div""><p>How confident are you that your clockwise/counter-clockwise response just now was accurate? Please rate your confidence on the slider bar below.</p></div>","""","""","""",50,"""","""","""",81,"2021-12-31 03:30:01",192.145.117.242,"Mozilla/5.0 (Windows NT 10.0; Win64; x64) AppleWebKit/537.36 (KHTML, like Gecko) Chrome/96.0.4664.110 Safari/537.36",WebKit,Chrome,96.0.4664.110,Windows,10.0,ac0f2dffeffaa78d35a552e03d03f0a8
12,1,"""",test_procedure,fixation,html-keyboard-response,154,408289,0.0-11.0-0.1-0.37,3SD15I2WEBVYX2RZ7BNPTJHHA9P63F,A2FGKKWP33DFWS,34V1S5K3G12NZOD8EMT18GGRDM196O,3SV44,3SV44,34V1S5K3G12NZOD8EMT18GGRDM196O,34V1S5K3G12NZOD8EMT18GGRDM196O,338054,338054,1,0.03,"""",null,null,"<div class = fixationbox><div class = fixation>+</div></div>","""","""","""","""","""","""","""","""","2021-12-31 03:30:01",192.145.117.242,"Mozilla/5.0 (Windows NT 10.0; Win64; x64) AppleWebKit/537.36 (KHTML, like Gecko) Chrome/96.0.4664.110 Safari/537.36",WebKit,Chrome,96.0.4664.110,Windows,10.0,ac0f2dffeffaa78d35a552e03d03f0a8
12,1,"""",test_procedure,stim_test,canvas-button-response,155,409745,0.0-11.0-0.1-1.37,3SD15I2WEBVYX2RZ7BNPTJHHA9P63F,A2FGKKWP33DFWS,34V1S5K3G12NZOD8EMT18GGRDM196O,3SV44,3SV44,34V1S5K3G12NZOD8EMT18GGRDM196O,34V1S5K3G12NZOD8EMT18GGRDM196O,338054,338054,1,0.03,"""",1412.8999999761581,0,catchStim4,0,Counter-clockwise,true,"""",0.01,120,0.001,"""","2021-12-31 03:30:01",192.145.117.242,"Mozilla/5.0 (Windows NT 10.0; Win64; x64) AppleWebKit/537.36 (KHTML, like Gecko) Chrome/96.0.4664.110 Safari/537.36",WebKit,Chrome,96.0.4664.110,Windows,10.0,ac0f2dffeffaa78d35a552e03d03f0a8
