run_id,condition,success,exp_stage,trial_id,trial_type,trial_index,time_elapsed,internal_node_id,hitId,workerId,assignmentId,a,tp_a,b,tp_b,c,tp_c,conditionmyown,cen_signal_contrast_stim,view_history,rt,response,stimulus,correct_response,correct_response_in_clockwise_or_counterclockwise,correct,slider_start,ctx_signal_contrast,cen_angle_in_degree,cen_signal_contrast_catchStim,confidence,recorded_at,ip,user_agent,device,browser,browser_version,platform,platform_version,source_code_version
24,1,true,pre-exp,fullscreen_starts,fullscreen,0,12813,0.0-0.0,3SD15I2WEBVYX2RZ7BNPTJHHA9P63F,AW5O1RK3W60FC,3S4AW7T80KJ4L3A3KV3CGRN8HPF4LY,8W4S4,8W4S4,3S4AW7T80KJ4L3A3KV3CGRN8HPF4LY,3S4AW7T80KJ4L3A3KV3CGRN8HPF4LY,338054,338054,1,0.03,"""","""","""","""","""","""","""","""","""","""","""","""","2021-12-31 04:27:41",68.109.61.30,"Mozilla/5.0 (Windows NT 10.0; Win64; x64) AppleWebKit/537.36 (KHTML, like Gecko) Chrome/96.0.4664.110 Safari/537.36",WebKit,Chrome,96.0.4664.110,Windows,10.0,ac0f2dffeffaa78d35a552e03d03f0a8
24,1,"""",pre-exp,instructionspage1,instructions,1,15776,0.0-1.0-0.0,3SD15I2WEBVYX2RZ7BNPTJHHA9P63F,AW5O1RK3W60FC,3S4AW7T80KJ4L3A3KV3CGRN8HPF4LY,8W4S4,8W4S4,3S4AW7T80KJ4L3A3KV3CGRN8HPF4LY,3S4AW7T80KJ4L3A3KV3CGRN8HPF4LY,338054,338054,1,0.03,"[{""page_index"":0,""viewing_time"":2957.7000000476837}]",2957.9000000953674,"""","""","""","""","""","""","""","""","""","""","2021-12-31 04:27:41",68.109.61.30,"Mozilla/5.0 (Windows NT 10.0; Win64; x64) AppleWebKit/537.36 (KHTML, like Gecko) Chrome/96.0.4664.110 Safari/537.36",WebKit,Chrome,96.0.4664.110,Windows,10.0,ac0f2dffeffaa78d35a552e03d03f0a8
24,1,"""",pre-exp,instructions_block2,canvas-button-response,2,91226,0.0-2.0-0.0-0.0,3SD15I2WEBVYX2RZ7BNPTJHHA9P63F,AW5O1RK3W60FC,3S4AW7T80KJ4L3A3KV3CGRN8HPF4LY,8W4S4,8W4S4,3S4AW7T80KJ4L3A3KV3CGRN8HPF4LY,3S4AW7T80KJ4L3A3KV3CGRN8HPF4LY,338054,338054,1,0.03,"""",75330,1,instructionStim1,1,Clockwise,true,"""","""","""","""","""","2021-12-31 04:27:41",68.109.61.30,"Mozilla/5.0 (Windows NT 10.0; Win64; x64) AppleWebKit/537.36 (KHTML, like Gecko) Chrome/96.0.4664.110 Safari/537.36",WebKit,Chrome,96.0.4664.110,Windows,10.0,ac0f2dffeffaa78d35a552e03d03f0a8
24,1,"""",pre-exp,instructions_block3,canvas-button-response,3,96449,0.0-3.0-0.0-0.0,3SD15I2WEBVYX2RZ7BNPTJHHA9P63F,AW5O1RK3W60FC,3S4AW7T80KJ4L3A3KV3CGRN8HPF4LY,8W4S4,8W4S4,3S4AW7T80KJ4L3A3KV3CGRN8HPF4LY,3S4AW7T80KJ4L3A3KV3CGRN8HPF4LY,338054,338054,1,0.03,"""",5137.300000190735,0,instructionStim2,0,Counter-clockwise,true,"""","""","""","""","""","2021-12-31 04:27:41",68.109.61.30,"Mozilla/5.0 (Windows NT 10.0; Win64; x64) AppleWebKit/537.36 (KHTML, like Gecko) Chrome/96.0.4664.110 Safari/537.36",WebKit,Chrome,96.0.4664.110,Windows,10.0,ac0f2dffeffaa78d35a552e03d03f0a8
24,1,"""",pre-exp,instructions_block4,html-slider-response,4,129297,0.0-4.0,3SD15I2WEBVYX2RZ7BNPTJHHA9P63F,AW5O1RK3W60FC,3S4AW7T80KJ4L3A3KV3CGRN8HPF4LY,8W4S4,8W4S4,3S4AW7T80KJ4L3A3KV3CGRN8HPF4LY,3S4AW7T80KJ4L3A3KV3CGRN8HPF4LY,338054,338054,1,0.03,"""",32846.09999990463,98,"<div id=""message-div""><p>After you have made your clockwise/counter-clockwise choice, <br>you will be asked to rate how confident you are that you were correct in your clockwise/counter-clockwise choice using a slide bar.<br>Please try to use the entire range of the slider bar.<br>For example, feel free to move the slider to the leftmost location if you are extremely uncertain about your choice, and the rightmost location if you are extremely certain.</p></div>","""","""","""",50,"""","""","""","""","2021-12-31 04:27:41",68.109.61.30,"Mozilla/5.0 (Windows NT 10.0; Win64; x64) AppleWebKit/537.36 (KHTML, like Gecko) Chrome/96.0.4664.110 Safari/537.36",WebKit,Chrome,96.0.4664.110,Windows,10.0,ac0f2dffeffaa78d35a552e03d03f0a8
24,1,"""",pre-exp,instructionspage5,instructions,5,150424,0.0-5.0-0.0,3SD15I2WEBVYX2RZ7BNPTJHHA9P63F,AW5O1RK3W60FC,3S4AW7T80KJ4L3A3KV3CGRN8HPF4LY,8W4S4,8W4S4,3S4AW7T80KJ4L3A3KV3CGRN8HPF4LY,3S4AW7T80KJ4L3A3KV3CGRN8HPF4LY,338054,338054,1,0.03,"[{""page_index"":0,""viewing_time"":21125.900000095367}]",21126.10000014305,"""","""","""","""","""","""","""","""","""","""","2021-12-31 04:27:41",68.109.61.30,"Mozilla/5.0 (Windows NT 10.0; Win64; x64) AppleWebKit/537.36 (KHTML, like Gecko) Chrome/96.0.4664.110 Safari/537.36",WebKit,Chrome,96.0.4664.110,Windows,10.0,ac0f2dffeffaa78d35a552e03d03f0a8
24,1,"""",pre-exp,instructionspage6,instructions,6,156688,0.0-6.0-0.0,3SD15I2WEBVYX2RZ7BNPTJHHA9P63F,AW5O1RK3W60FC,3S4AW7T80KJ4L3A3KV3CGRN8HPF4LY,8W4S4,8W4S4,3S4AW7T80KJ4L3A3KV3CGRN8HPF4LY,3S4AW7T80KJ4L3A3KV3CGRN8HPF4LY,338054,338054,1,0.03,"[{""page_index"":0,""viewing_time"":6262.400000095367}]",6262.5,"""","""","""","""","""","""","""","""","""","""","2021-12-31 04:27:41",68.109.61.30,"Mozilla/5.0 (Windows NT 10.0; Win64; x64) AppleWebKit/537.36 (KHTML, like Gecko) Chrome/96.0.4664.110 Safari/537.36",WebKit,Chrome,96.0.4664.110,Windows,10.0,ac0f2dffeffaa78d35a552e03d03f0a8
24,1,"""",pre-exp,instructionspage7,instructions,7,173249,0.0-7.0-0.0,3SD15I2WEBVYX2RZ7BNPTJHHA9P63F,AW5O1RK3W60FC,3S4AW7T80KJ4L3A3KV3CGRN8HPF4LY,8W4S4,8W4S4,3S4AW7T80KJ4L3A3KV3CGRN8HPF4LY,3S4AW7T80KJ4L3A3KV3CGRN8HPF4LY,338054,338054,1,0.03,"[{""page_index"":0,""viewing_time"":16558.599999904633}]",16558.700000047684,"""","""","""","""","""","""","""","""","""","""","2021-12-31 04:27:41",68.109.61.30,"Mozilla/5.0 (Windows NT 10.0; Win64; x64) AppleWebKit/537.36 (KHTML, like Gecko) Chrome/96.0.4664.110 Safari/537.36",WebKit,Chrome,96.0.4664.110,Windows,10.0,ac0f2dffeffaa78d35a552e03d03f0a8
24,1,"""",pre-exp,instructionspage8,instructions,8,177856,0.0-8.0-0.0,3SD15I2WEBVYX2RZ7BNPTJHHA9P63F,AW5O1RK3W60FC,3S4AW7T80KJ4L3A3KV3CGRN8HPF4LY,8W4S4,8W4S4,3S4AW7T80KJ4L3A3KV3CGRN8HPF4LY,3S4AW7T80KJ4L3A3KV3CGRN8HPF4LY,338054,338054,1,0.03,"[{""page_index"":0,""viewing_time"":4606.600000143051}]",4606.800000190735,"""","""","""","""","""","""","""","""","""","""","2021-12-31 04:27:41",68.109.61.30,"Mozilla/5.0 (Windows NT 10.0; Win64; x64) AppleWebKit/537.36 (KHTML, like Gecko) Chrome/96.0.4664.110 Safari/537.36",WebKit,Chrome,96.0.4664.110,Windows,10.0,ac0f2dffeffaa78d35a552e03d03f0a8
24,1,"""",practice_procedure,fixation,html-keyboard-response,9,178359,0.0-9.0-0.0-0.0,3SD15I2WEBVYX2RZ7BNPTJHHA9P63F,AW5O1RK3W60FC,3S4AW7T80KJ4L3A3KV3CGRN8HPF4LY,8W4S4,8W4S4,3S4AW7T80KJ4L3A3KV3CGRN8HPF4LY,3S4AW7T80KJ4L3A3KV3CGRN8HPF4LY,338054,338054,1,0.03,"""",null,null,"<div class = fixationbox><div class = fixation>+</div></div>","""","""","""","""","""","""","""","""","2021-12-31 04:27:41",68.109.61.30,"Mozilla/5.0 (Windows NT 10.0; Win64; x64) AppleWebKit/537.36 (KHTML, like Gecko) Chrome/96.0.4664.110 Safari/537.36",WebKit,Chrome,96.0.4664.110,Windows,10.0,ac0f2dffeffaa78d35a552e03d03f0a8
24,1,"""",practice_procedure,stim_practice,canvas-button-response,10,179817,0.0-9.0-0.0-1.0,3SD15I2WEBVYX2RZ7BNPTJHHA9P63F,AW5O1RK3W60FC,3S4AW7T80KJ4L3A3KV3CGRN8HPF4LY,8W4S4,8W4S4,3S4AW7T80KJ4L3A3KV3CGRN8HPF4LY,3S4AW7T80KJ4L3A3KV3CGRN8HPF4LY,338054,338054,1,0.03,"""",1390.7000000476837,1,practiceStim1,1,Clockwise,true,"""",0.01,60,0.99,"""","2021-12-31 04:27:41",68.109.61.30,"Mozilla/5.0 (Windows NT 10.0; Win64; x64) AppleWebKit/537.36 (KHTML, like Gecko) Chrome/96.0.4664.110 Safari/537.36",WebKit,Chrome,96.0.4664.110,Windows,10.0,ac0f2dffeffaa78d35a552e03d03f0a8
24,1,"""",practice_procedure,confidence_rating,html-slider-response,11,186185,0.0-9.0-0.0-2.0,3SD15I2WEBVYX2RZ7BNPTJHHA9P63F,AW5O1RK3W60FC,3S4AW7T80KJ4L3A3KV3CGRN8HPF4LY,8W4S4,8W4S4,3S4AW7T80KJ4L3A3KV3CGRN8HPF4LY,3S4AW7T80KJ4L3A3KV3CGRN8HPF4LY,338054,338054,1,0.03,"""",6367,100,"<div id=""message-div""><p>How confident are you that your clockwise/counter-clockwise response just now was accurate? Please rate your confidence on the slider bar below.</p></div>","""","""","""",50,"""","""","""",100,"2021-12-31 04:27:41",68.109.61.30,"Mozilla/5.0 (Windows NT 10.0; Win64; x64) AppleWebKit/537.36 (KHTML, like Gecko) Chrome/96.0.4664.110 Safari/537.36",WebKit,Chrome,96.0.4664.110,Windows,10.0,ac0f2dffeffaa78d35a552e03d03f0a8
24,1,"""",practice_procedure,fixation,html-keyboard-response,12,186689,0.0-9.0-0.0-0.1,3SD15I2WEBVYX2RZ7BNPTJHHA9P63F,AW5O1RK3W60FC,3S4AW7T80KJ4L3A3KV3CGRN8HPF4LY,8W4S4,8W4S4,3S4AW7T80KJ4L3A3KV3CGRN8HPF4LY,3S4AW7T80KJ4L3A3KV3CGRN8HPF4LY,338054,338054,1,0.03,"""",null,null,"<div class = fixationbox><div class = fixation>+</div></div>","""","""","""","""","""","""","""","""","2021-12-31 04:27:41",68.109.61.30,"Mozilla/5.0 (Windows NT 10.0; Win64; x64) AppleWebKit/537.36 (KHTML, like Gecko) Chrome/96.0.4664.110 Safari/537.36",WebKit,Chrome,96.0.4664.110,Windows,10.0,ac0f2dffeffaa78d35a552e03d03f0a8
24,1,"""",practice_procedure,stim_practice,canvas-button-response,13,187961,0.0-9.0-0.0-1.1,3SD15I2WEBVYX2RZ7BNPTJHHA9P63F,AW5O1RK3W60FC,3S4AW7T80KJ4L3A3KV3CGRN8HPF4LY,8W4S4,8W4S4,3S4AW7T80KJ4L3A3KV3CGRN8HPF4LY,3S4AW7T80KJ4L3A3KV3CGRN8HPF4LY,338054,338054,1,0.03,"""",1221.7000000476837,0,practiceStim4,0,Counter-clockwise,true,"""",0.3,120,0.99,"""","2021-12-31 04:27:41",68.109.61.30,"Mozilla/5.0 (Windows NT 10.0; Win64; x64) AppleWebKit/537.36 (KHTML, like Gecko) Chrome/96.0.4664.110 Safari/537.36",WebKit,Chrome,96.0.4664.110,Windows,10.0,ac0f2dffeffaa78d35a552e03d03f0a8
24,1,"""",practice_procedure,confidence_rating,html-slider-response,14,192161,0.0-9.0-0.0-2.1,3SD15I2WEBVYX2RZ7BNPTJHHA9P63F,AW5O1RK3W60FC,3S4AW7T80KJ4L3A3KV3CGRN8HPF4LY,8W4S4,8W4S4,3S4AW7T80KJ4L3A3KV3CGRN8HPF4LY,3S4AW7T80KJ4L3A3KV3CGRN8HPF4LY,338054,338054,1,0.03,"""",4199,100,"<div id=""message-div""><p>How confident are you that your clockwise/counter-clockwise response just now was accurate? Please rate your confidence on the slider bar below.</p></div>","""","""","""",50,"""","""","""",100,"2021-12-31 04:27:41",68.109.61.30,"Mozilla/5.0 (Windows NT 10.0; Win64; x64) AppleWebKit/537.36 (KHTML, like Gecko) Chrome/96.0.4664.110 Safari/537.36",WebKit,Chrome,96.0.4664.110,Windows,10.0,ac0f2dffeffaa78d35a552e03d03f0a8
24,1,"""",practice_procedure,fixation,html-keyboard-response,15,192665,0.0-9.0-0.0-0.2,3SD15I2WEBVYX2RZ7BNPTJHHA9P63F,AW5O1RK3W60FC,3S4AW7T80KJ4L3A3KV3CGRN8HPF4LY,8W4S4,8W4S4,3S4AW7T80KJ4L3A3KV3CGRN8HPF4LY,3S4AW7T80KJ4L3A3KV3CGRN8HPF4LY,338054,338054,1,0.03,"""",null,null,"<div class = fixationbox><div class = fixation>+</div></div>","""","""","""","""","""","""","""","""","2021-12-31 04:27:41",68.109.61.30,"Mozilla/5.0 (Windows NT 10.0; Win64; x64) AppleWebKit/537.36 (KHTML, like Gecko) Chrome/96.0.4664.110 Safari/537.36",WebKit,Chrome,96.0.4664.110,Windows,10.0,ac0f2dffeffaa78d35a552e03d03f0a8
24,1,"""",practice_procedure,stim_practice,canvas-button-response,16,193681,0.0-9.0-0.0-1.2,3SD15I2WEBVYX2RZ7BNPTJHHA9P63F,AW5O1RK3W60FC,3S4AW7T80KJ4L3A3KV3CGRN8HPF4LY,8W4S4,8W4S4,3S4AW7T80KJ4L3A3KV3CGRN8HPF4LY,3S4AW7T80KJ4L3A3KV3CGRN8HPF4LY,338054,338054,1,0.03,"""",963.4000000953674,0,practiceStim4,0,Counter-clockwise,true,"""",0.3,120,0.99,"""","2021-12-31 04:27:41",68.109.61.30,"Mozilla/5.0 (Windows NT 10.0; Win64; x64) AppleWebKit/537.36 (KHTML, like Gecko) Chrome/96.0.4664.110 Safari/537.36",WebKit,Chrome,96.0.4664.110,Windows,10.0,ac0f2dffeffaa78d35a552e03d03f0a8
24,1,"""",practice_procedure,confidence_rating,html-slider-response,17,200537,0.0-9.0-0.0-2.2,3SD15I2WEBVYX2RZ7BNPTJHHA9P63F,AW5O1RK3W60FC,3S4AW7T80KJ4L3A3KV3CGRN8HPF4LY,8W4S4,8W4S4,3S4AW7T80KJ4L3A3KV3CGRN8HPF4LY,3S4AW7T80KJ4L3A3KV3CGRN8HPF4LY,338054,338054,1,0.03,"""",6855,99,"<div id=""message-div""><p>How confident are you that your clockwise/counter-clockwise response just now was accurate? Please rate your confidence on the slider bar below.</p></div>","""","""","""",50,"""","""","""",99,"2021-12-31 04:27:41",68.109.61.30,"Mozilla/5.0 (Windows NT 10.0; Win64; x64) AppleWebKit/537.36 (KHTML, like Gecko) Chrome/96.0.4664.110 Safari/537.36",WebKit,Chrome,96.0.4664.110,Windows,10.0,ac0f2dffeffaa78d35a552e03d03f0a8
24,1,"""",practice_procedure,fixation,html-keyboard-response,18,201040,0.0-9.0-0.0-0.3,3SD15I2WEBVYX2RZ7BNPTJHHA9P63F,AW5O1RK3W60FC,3S4AW7T80KJ4L3A3KV3CGRN8HPF4LY,8W4S4,8W4S4,3S4AW7T80KJ4L3A3KV3CGRN8HPF4LY,3S4AW7T80KJ4L3A3KV3CGRN8HPF4LY,338054,338054,1,0.03,"""",null,null,"<div class = fixationbox><div class = fixation>+</div></div>","""","""","""","""","""","""","""","""","2021-12-31 04:27:41",68.109.61.30,"Mozilla/5.0 (Windows NT 10.0; Win64; x64) AppleWebKit/537.36 (KHTML, like Gecko) Chrome/96.0.4664.110 Safari/537.36",WebKit,Chrome,96.0.4664.110,Windows,10.0,ac0f2dffeffaa78d35a552e03d03f0a8
24,1,"""",practice_procedure,stim_practice,canvas-button-response,19,202073,0.0-9.0-0.0-1.3,3SD15I2WEBVYX2RZ7BNPTJHHA9P63F,AW5O1RK3W60FC,3S4AW7T80KJ4L3A3KV3CGRN8HPF4LY,8W4S4,8W4S4,3S4AW7T80KJ4L3A3KV3CGRN8HPF4LY,3S4AW7T80KJ4L3A3KV3CGRN8HPF4LY,338054,338054,1,0.03,"""",984.7999999523163,1,practiceStim1,1,Clockwise,true,"""",0.01,60,0.99,"""","2021-12-31 04:27:41",68.109.61.30,"Mozilla/5.0 (Windows NT 10.0; Win64; x64) AppleWebKit/537.36 (KHTML, like Gecko) Chrome/96.0.4664.110 Safari/537.36",WebKit,Chrome,96.0.4664.110,Windows,10.0,ac0f2dffeffaa78d35a552e03d03f0a8
24,1,"""",practice_procedure,confidence_rating,html-slider-response,20,205657,0.0-9.0-0.0-2.3,3SD15I2WEBVYX2RZ7BNPTJHHA9P63F,AW5O1RK3W60FC,3S4AW7T80KJ4L3A3KV3CGRN8HPF4LY,8W4S4,8W4S4,3S4AW7T80KJ4L3A3KV3CGRN8HPF4LY,3S4AW7T80KJ4L3A3KV3CGRN8HPF4LY,338054,338054,1,0.03,"""",3582.9000000953674,99,"<div id=""message-div""><p>How confident are you that your clockwise/counter-clockwise response just now was accurate? Please rate your confidence on the slider bar below.</p></div>","""","""","""",50,"""","""","""",99,"2021-12-31 04:27:41",68.109.61.30,"Mozilla/5.0 (Windows NT 10.0; Win64; x64) AppleWebKit/537.36 (KHTML, like Gecko) Chrome/96.0.4664.110 Safari/537.36",WebKit,Chrome,96.0.4664.110,Windows,10.0,ac0f2dffeffaa78d35a552e03d03f0a8
24,1,"""",practice_procedure,fixation,html-keyboard-response,21,206159,0.0-9.0-0.0-0.4,3SD15I2WEBVYX2RZ7BNPTJHHA9P63F,AW5O1RK3W60FC,3S4AW7T80KJ4L3A3KV3CGRN8HPF4LY,8W4S4,8W4S4,3S4AW7T80KJ4L3A3KV3CGRN8HPF4LY,3S4AW7T80KJ4L3A3KV3CGRN8HPF4LY,338054,338054,1,0.03,"""",null,null,"<div class = fixationbox><div class = fixation>+</div></div>","""","""","""","""","""","""","""","""","2021-12-31 04:27:41",68.109.61.30,"Mozilla/5.0 (Windows NT 10.0; Win64; x64) AppleWebKit/537.36 (KHTML, like Gecko) Chrome/96.0.4664.110 Safari/537.36",WebKit,Chrome,96.0.4664.110,Windows,10.0,ac0f2dffeffaa78d35a552e03d03f0a8
24,1,"""",practice_procedure,stim_practice,canvas-button-response,22,207801,0.0-9.0-0.0-1.4,3SD15I2WEBVYX2RZ7BNPTJHHA9P63F,AW5O1RK3W60FC,3S4AW7T80KJ4L3A3KV3CGRN8HPF4LY,8W4S4,8W4S4,3S4AW7T80KJ4L3A3KV3CGRN8HPF4LY,3S4AW7T80KJ4L3A3KV3CGRN8HPF4LY,338054,338054,1,0.03,"""",1587.9000000953674,0,practiceStim2,0,Counter-clockwise,true,"""",0.01,120,0.99,"""","2021-12-31 04:27:41",68.109.61.30,"Mozilla/5.0 (Windows NT 10.0; Win64; x64) AppleWebKit/537.36 (KHTML, like Gecko) Chrome/96.0.4664.110 Safari/537.36",WebKit,Chrome,96.0.4664.110,Windows,10.0,ac0f2dffeffaa78d35a552e03d03f0a8
24,1,"""",practice_procedure,confidence_rating,html-slider-response,23,214521,0.0-9.0-0.0-2.4,3SD15I2WEBVYX2RZ7BNPTJHHA9P63F,AW5O1RK3W60FC,3S4AW7T80KJ4L3A3KV3CGRN8HPF4LY,8W4S4,8W4S4,3S4AW7T80KJ4L3A3KV3CGRN8HPF4LY,3S4AW7T80KJ4L3A3KV3CGRN8HPF4LY,338054,338054,1,0.03,"""",6718.799999952316,90,"<div id=""message-div""><p>How confident are you that your clockwise/counter-clockwise response just now was accurate? Please rate your confidence on the slider bar below.</p></div>","""","""","""",50,"""","""","""",90,"2021-12-31 04:27:41",68.109.61.30,"Mozilla/5.0 (Windows NT 10.0; Win64; x64) AppleWebKit/537.36 (KHTML, like Gecko) Chrome/96.0.4664.110 Safari/537.36",WebKit,Chrome,96.0.4664.110,Windows,10.0,ac0f2dffeffaa78d35a552e03d03f0a8
24,1,"""",practice_procedure,fixation,html-keyboard-response,24,215024,0.0-9.0-0.0-0.5,3SD15I2WEBVYX2RZ7BNPTJHHA9P63F,AW5O1RK3W60FC,3S4AW7T80KJ4L3A3KV3CGRN8HPF4LY,8W4S4,8W4S4,3S4AW7T80KJ4L3A3KV3CGRN8HPF4LY,3S4AW7T80KJ4L3A3KV3CGRN8HPF4LY,338054,338054,1,0.03,"""",null,null,"<div class = fixationbox><div class = fixation>+</div></div>","""","""","""","""","""","""","""","""","2021-12-31 04:27:41",68.109.61.30,"Mozilla/5.0 (Windows NT 10.0; Win64; x64) AppleWebKit/537.36 (KHTML, like Gecko) Chrome/96.0.4664.110 Safari/537.36",WebKit,Chrome,96.0.4664.110,Windows,10.0,ac0f2dffeffaa78d35a552e03d03f0a8
24,1,"""",practice_procedure,stim_practice,canvas-button-response,25,215897,0.0-9.0-0.0-1.5,3SD15I2WEBVYX2RZ7BNPTJHHA9P63F,AW5O1RK3W60FC,3S4AW7T80KJ4L3A3KV3CGRN8HPF4LY,8W4S4,8W4S4,3S4AW7T80KJ4L3A3KV3CGRN8HPF4LY,3S4AW7T80KJ4L3A3KV3CGRN8HPF4LY,338054,338054,1,0.03,"""",826.1000001430511,0,practiceStim4,0,Counter-clockwise,true,"""",0.3,120,0.99,"""","2021-12-31 04:27:41",68.109.61.30,"Mozilla/5.0 (Windows NT 10.0; Win64; x64) AppleWebKit/537.36 (KHTML, like Gecko) Chrome/96.0.4664.110 Safari/537.36",WebKit,Chrome,96.0.4664.110,Windows,10.0,ac0f2dffeffaa78d35a552e03d03f0a8
24,1,"""",practice_procedure,confidence_rating,html-slider-response,26,218425,0.0-9.0-0.0-2.5,3SD15I2WEBVYX2RZ7BNPTJHHA9P63F,AW5O1RK3W60FC,3S4AW7T80KJ4L3A3KV3CGRN8HPF4LY,8W4S4,8W4S4,3S4AW7T80KJ4L3A3KV3CGRN8HPF4LY,3S4AW7T80KJ4L3A3KV3CGRN8HPF4LY,338054,338054,1,0.03,"""",2526.899999856949,94,"<div id=""message-div""><p>How confident are you that your clockwise/counter-clockwise response just now was accurate? Please rate your confidence on the slider bar below.</p></div>","""","""","""",50,"""","""","""",94,"2021-12-31 04:27:41",68.109.61.30,"Mozilla/5.0 (Windows NT 10.0; Win64; x64) AppleWebKit/537.36 (KHTML, like Gecko) Chrome/96.0.4664.110 Safari/537.36",WebKit,Chrome,96.0.4664.110,Windows,10.0,ac0f2dffeffaa78d35a552e03d03f0a8
24,1,"""",practice_procedure,fixation,html-keyboard-response,27,218927,0.0-9.0-0.0-0.6,3SD15I2WEBVYX2RZ7BNPTJHHA9P63F,AW5O1RK3W60FC,3S4AW7T80KJ4L3A3KV3CGRN8HPF4LY,8W4S4,8W4S4,3S4AW7T80KJ4L3A3KV3CGRN8HPF4LY,3S4AW7T80KJ4L3A3KV3CGRN8HPF4LY,338054,338054,1,0.03,"""",null,null,"<div class = fixationbox><div class = fixation>+</div></div>","""","""","""","""","""","""","""","""","2021-12-31 04:27:41",68.109.61.30,"Mozilla/5.0 (Windows NT 10.0; Win64; x64) AppleWebKit/537.36 (KHTML, like Gecko) Chrome/96.0.4664.110 Safari/537.36",WebKit,Chrome,96.0.4664.110,Windows,10.0,ac0f2dffeffaa78d35a552e03d03f0a8
24,1,"""",practice_procedure,stim_practice,canvas-button-response,28,220657,0.0-9.0-0.0-1.6,3SD15I2WEBVYX2RZ7BNPTJHHA9P63F,AW5O1RK3W60FC,3S4AW7T80KJ4L3A3KV3CGRN8HPF4LY,8W4S4,8W4S4,3S4AW7T80KJ4L3A3KV3CGRN8HPF4LY,3S4AW7T80KJ4L3A3KV3CGRN8HPF4LY,338054,338054,1,0.03,"""",1679.2999999523163,0,practiceStim4,0,Counter-clockwise,true,"""",0.3,120,0.99,"""","2021-12-31 04:27:41",68.109.61.30,"Mozilla/5.0 (Windows NT 10.0; Win64; x64) AppleWebKit/537.36 (KHTML, like Gecko) Chrome/96.0.4664.110 Safari/537.36",WebKit,Chrome,96.0.4664.110,Windows,10.0,ac0f2dffeffaa78d35a552e03d03f0a8
24,1,"""",practice_procedure,confidence_rating,html-slider-response,29,231946,0.0-9.0-0.0-2.6,3SD15I2WEBVYX2RZ7BNPTJHHA9P63F,AW5O1RK3W60FC,3S4AW7T80KJ4L3A3KV3CGRN8HPF4LY,8W4S4,8W4S4,3S4AW7T80KJ4L3A3KV3CGRN8HPF4LY,3S4AW7T80KJ4L3A3KV3CGRN8HPF4LY,338054,338054,1,0.03,"""",11285.900000095367,95,"<div id=""message-div""><p>How confident are you that your clockwise/counter-clockwise response just now was accurate? Please rate your confidence on the slider bar below.</p></div>","""","""","""",50,"""","""","""",95,"2021-12-31 04:27:41",68.109.61.30,"Mozilla/5.0 (Windows NT 10.0; Win64; x64) AppleWebKit/537.36 (KHTML, like Gecko) Chrome/96.0.4664.110 Safari/537.36",WebKit,Chrome,96.0.4664.110,Windows,10.0,ac0f2dffeffaa78d35a552e03d03f0a8
24,1,"""",practice_procedure,fixation,html-keyboard-response,30,232448,0.0-9.0-0.0-0.7,3SD15I2WEBVYX2RZ7BNPTJHHA9P63F,AW5O1RK3W60FC,3S4AW7T80KJ4L3A3KV3CGRN8HPF4LY,8W4S4,8W4S4,3S4AW7T80KJ4L3A3KV3CGRN8HPF4LY,3S4AW7T80KJ4L3A3KV3CGRN8HPF4LY,338054,338054,1,0.03,"""",null,null,"<div class = fixationbox><div class = fixation>+</div></div>","""","""","""","""","""","""","""","""","2021-12-31 04:27:41",68.109.61.30,"Mozilla/5.0 (Windows NT 10.0; Win64; x64) AppleWebKit/537.36 (KHTML, like Gecko) Chrome/96.0.4664.110 Safari/537.36",WebKit,Chrome,96.0.4664.110,Windows,10.0,ac0f2dffeffaa78d35a552e03d03f0a8
24,1,"""",practice_procedure,stim_practice,canvas-button-response,31,233554,0.0-9.0-0.0-1.7,3SD15I2WEBVYX2RZ7BNPTJHHA9P63F,AW5O1RK3W60FC,3S4AW7T80KJ4L3A3KV3CGRN8HPF4LY,8W4S4,8W4S4,3S4AW7T80KJ4L3A3KV3CGRN8HPF4LY,3S4AW7T80KJ4L3A3KV3CGRN8HPF4LY,338054,338054,1,0.03,"""",1051.2000000476837,1,practiceStim1,1,Clockwise,true,"""",0.01,60,0.99,"""","2021-12-31 04:27:41",68.109.61.30,"Mozilla/5.0 (Windows NT 10.0; Win64; x64) AppleWebKit/537.36 (KHTML, like Gecko) Chrome/96.0.4664.110 Safari/537.36",WebKit,Chrome,96.0.4664.110,Windows,10.0,ac0f2dffeffaa78d35a552e03d03f0a8
24,1,"""",practice_procedure,confidence_rating,html-slider-response,32,236906,0.0-9.0-0.0-2.7,3SD15I2WEBVYX2RZ7BNPTJHHA9P63F,AW5O1RK3W60FC,3S4AW7T80KJ4L3A3KV3CGRN8HPF4LY,8W4S4,8W4S4,3S4AW7T80KJ4L3A3KV3CGRN8HPF4LY,3S4AW7T80KJ4L3A3KV3CGRN8HPF4LY,338054,338054,1,0.03,"""",3351,93,"<div id=""message-div""><p>How confident are you that your clockwise/counter-clockwise response just now was accurate? Please rate your confidence on the slider bar below.</p></div>","""","""","""",50,"""","""","""",93,"2021-12-31 04:27:41",68.109.61.30,"Mozilla/5.0 (Windows NT 10.0; Win64; x64) AppleWebKit/537.36 (KHTML, like Gecko) Chrome/96.0.4664.110 Safari/537.36",WebKit,Chrome,96.0.4664.110,Windows,10.0,ac0f2dffeffaa78d35a552e03d03f0a8
24,1,"""",practice_procedure,fixation,html-keyboard-response,33,237407,0.0-9.0-0.0-0.8,3SD15I2WEBVYX2RZ7BNPTJHHA9P63F,AW5O1RK3W60FC,3S4AW7T80KJ4L3A3KV3CGRN8HPF4LY,8W4S4,8W4S4,3S4AW7T80KJ4L3A3KV3CGRN8HPF4LY,3S4AW7T80KJ4L3A3KV3CGRN8HPF4LY,338054,338054,1,0.03,"""",null,null,"<div class = fixationbox><div class = fixation>+</div></div>","""","""","""","""","""","""","""","""","2021-12-31 04:27:41",68.109.61.30,"Mozilla/5.0 (Windows NT 10.0; Win64; x64) AppleWebKit/537.36 (KHTML, like Gecko) Chrome/96.0.4664.110 Safari/537.36",WebKit,Chrome,96.0.4664.110,Windows,10.0,ac0f2dffeffaa78d35a552e03d03f0a8
24,1,"""",practice_procedure,stim_practice,canvas-button-response,34,238562,0.0-9.0-0.0-1.8,3SD15I2WEBVYX2RZ7BNPTJHHA9P63F,AW5O1RK3W60FC,3S4AW7T80KJ4L3A3KV3CGRN8HPF4LY,8W4S4,8W4S4,3S4AW7T80KJ4L3A3KV3CGRN8HPF4LY,3S4AW7T80KJ4L3A3KV3CGRN8HPF4LY,338054,338054,1,0.03,"""",1107.9000000953674,1,practiceStim1,1,Clockwise,true,"""",0.01,60,0.99,"""","2021-12-31 04:27:41",68.109.61.30,"Mozilla/5.0 (Windows NT 10.0; Win64; x64) AppleWebKit/537.36 (KHTML, like Gecko) Chrome/96.0.4664.110 Safari/537.36",WebKit,Chrome,96.0.4664.110,Windows,10.0,ac0f2dffeffaa78d35a552e03d03f0a8
24,1,"""",practice_procedure,confidence_rating,html-slider-response,35,241186,0.0-9.0-0.0-2.8,3SD15I2WEBVYX2RZ7BNPTJHHA9P63F,AW5O1RK3W60FC,3S4AW7T80KJ4L3A3KV3CGRN8HPF4LY,8W4S4,8W4S4,3S4AW7T80KJ4L3A3KV3CGRN8HPF4LY,3S4AW7T80KJ4L3A3KV3CGRN8HPF4LY,338054,338054,1,0.03,"""",2623.300000190735,90,"<div id=""message-div""><p>How confident are you that your clockwise/counter-clockwise response just now was accurate? Please rate your confidence on the slider bar below.</p></div>","""","""","""",50,"""","""","""",90,"2021-12-31 04:27:41",68.109.61.30,"Mozilla/5.0 (Windows NT 10.0; Win64; x64) AppleWebKit/537.36 (KHTML, like Gecko) Chrome/96.0.4664.110 Safari/537.36",WebKit,Chrome,96.0.4664.110,Windows,10.0,ac0f2dffeffaa78d35a552e03d03f0a8
24,1,"""",practice_procedure,fixation,html-keyboard-response,36,241689,0.0-9.0-0.0-0.9,3SD15I2WEBVYX2RZ7BNPTJHHA9P63F,AW5O1RK3W60FC,3S4AW7T80KJ4L3A3KV3CGRN8HPF4LY,8W4S4,8W4S4,3S4AW7T80KJ4L3A3KV3CGRN8HPF4LY,3S4AW7T80KJ4L3A3KV3CGRN8HPF4LY,338054,338054,1,0.03,"""",null,null,"<div class = fixationbox><div class = fixation>+</div></div>","""","""","""","""","""","""","""","""","2021-12-31 04:27:41",68.109.61.30,"Mozilla/5.0 (Windows NT 10.0; Win64; x64) AppleWebKit/537.36 (KHTML, like Gecko) Chrome/96.0.4664.110 Safari/537.36",WebKit,Chrome,96.0.4664.110,Windows,10.0,ac0f2dffeffaa78d35a552e03d03f0a8
24,1,"""",practice_procedure,stim_practice,canvas-button-response,37,242634,0.0-9.0-0.0-1.9,3SD15I2WEBVYX2RZ7BNPTJHHA9P63F,AW5O1RK3W60FC,3S4AW7T80KJ4L3A3KV3CGRN8HPF4LY,8W4S4,8W4S4,3S4AW7T80KJ4L3A3KV3CGRN8HPF4LY,3S4AW7T80KJ4L3A3KV3CGRN8HPF4LY,338054,338054,1,0.03,"""",897.5,0,practiceStim2,0,Counter-clockwise,true,"""",0.01,120,0.99,"""","2021-12-31 04:27:41",68.109.61.30,"Mozilla/5.0 (Windows NT 10.0; Win64; x64) AppleWebKit/537.36 (KHTML, like Gecko) Chrome/96.0.4664.110 Safari/537.36",WebKit,Chrome,96.0.4664.110,Windows,10.0,ac0f2dffeffaa78d35a552e03d03f0a8
24,1,"""",practice_procedure,confidence_rating,html-slider-response,38,245410,0.0-9.0-0.0-2.9,3SD15I2WEBVYX2RZ7BNPTJHHA9P63F,AW5O1RK3W60FC,3S4AW7T80KJ4L3A3KV3CGRN8HPF4LY,8W4S4,8W4S4,3S4AW7T80KJ4L3A3KV3CGRN8HPF4LY,3S4AW7T80KJ4L3A3KV3CGRN8HPF4LY,338054,338054,1,0.03,"""",2774.2999999523163,87,"<div id=""message-div""><p>How confident are you that your clockwise/counter-clockwise response just now was accurate? Please rate your confidence on the slider bar below.</p></div>","""","""","""",50,"""","""","""",87,"2021-12-31 04:27:41",68.109.61.30,"Mozilla/5.0 (Windows NT 10.0; Win64; x64) AppleWebKit/537.36 (KHTML, like Gecko) Chrome/96.0.4664.110 Safari/537.36",WebKit,Chrome,96.0.4664.110,Windows,10.0,ac0f2dffeffaa78d35a552e03d03f0a8
24,1,"""",pre-test,test_instruction,instructions,39,277666,0.0-10.0,3SD15I2WEBVYX2RZ7BNPTJHHA9P63F,AW5O1RK3W60FC,3S4AW7T80KJ4L3A3KV3CGRN8HPF4LY,8W4S4,8W4S4,3S4AW7T80KJ4L3A3KV3CGRN8HPF4LY,3S4AW7T80KJ4L3A3KV3CGRN8HPF4LY,338054,338054,1,0.03,"[{""page_index"":0,""viewing_time"":32254.5}]",32254.799999952316,"""","""","""","""","""","""","""","""","""","""","2021-12-31 04:27:41",68.109.61.30,"Mozilla/5.0 (Windows NT 10.0; Win64; x64) AppleWebKit/537.36 (KHTML, like Gecko) Chrome/96.0.4664.110 Safari/537.36",WebKit,Chrome,96.0.4664.110,Windows,10.0,ac0f2dffeffaa78d35a552e03d03f0a8
24,1,"""",test_procedure,fixation,html-keyboard-response,40,278169,0.0-11.0-0.0-0.0,3SD15I2WEBVYX2RZ7BNPTJHHA9P63F,AW5O1RK3W60FC,3S4AW7T80KJ4L3A3KV3CGRN8HPF4LY,8W4S4,8W4S4,3S4AW7T80KJ4L3A3KV3CGRN8HPF4LY,3S4AW7T80KJ4L3A3KV3CGRN8HPF4LY,338054,338054,1,0.03,"""",null,null,"<div class = fixationbox><div class = fixation>+</div></div>","""","""","""","""","""","""","""","""","2021-12-31 04:27:41",68.109.61.30,"Mozilla/5.0 (Windows NT 10.0; Win64; x64) AppleWebKit/537.36 (KHTML, like Gecko) Chrome/96.0.4664.110 Safari/537.36",WebKit,Chrome,96.0.4664.110,Windows,10.0,ac0f2dffeffaa78d35a552e03d03f0a8
24,1,"""",test_procedure,stim_test,canvas-button-response,41,279306,0.0-11.0-0.0-1.0,3SD15I2WEBVYX2RZ7BNPTJHHA9P63F,AW5O1RK3W60FC,3S4AW7T80KJ4L3A3KV3CGRN8HPF4LY,8W4S4,8W4S4,3S4AW7T80KJ4L3A3KV3CGRN8HPF4LY,3S4AW7T80KJ4L3A3KV3CGRN8HPF4LY,338054,338054,1,0.03,"""",1081.6000001430511,1,catchStim5,1,Clockwise,true,"""",0.3,60,0.6,"""","2021-12-31 04:27:41",68.109.61.30,"Mozilla/5.0 (Windows NT 10.0; Win64; x64) AppleWebKit/537.36 (KHTML, like Gecko) Chrome/96.0.4664.110 Safari/537.36",WebKit,Chrome,96.0.4664.110,Windows,10.0,ac0f2dffeffaa78d35a552e03d03f0a8
24,1,"""",test_procedure,confidence_rating,html-slider-response,42,283130,0.0-11.0-0.0-2.0,3SD15I2WEBVYX2RZ7BNPTJHHA9P63F,AW5O1RK3W60FC,3S4AW7T80KJ4L3A3KV3CGRN8HPF4LY,8W4S4,8W4S4,3S4AW7T80KJ4L3A3KV3CGRN8HPF4LY,3S4AW7T80KJ4L3A3KV3CGRN8HPF4LY,338054,338054,1,0.03,"""",3822.5,96,"<div id=""message-div""><p>How confident are you that your clockwise/counter-clockwise response just now was accurate? Please rate your confidence on the slider bar below.</p></div>","""","""","""",50,"""","""","""",96,"2021-12-31 04:27:41",68.109.61.30,"Mozilla/5.0 (Windows NT 10.0; Win64; x64) AppleWebKit/537.36 (KHTML, like Gecko) Chrome/96.0.4664.110 Safari/537.36",WebKit,Chrome,96.0.4664.110,Windows,10.0,ac0f2dffeffaa78d35a552e03d03f0a8
24,1,"""",test_procedure,fixation,html-keyboard-response,43,283632,0.0-11.0-0.0-0.1,3SD15I2WEBVYX2RZ7BNPTJHHA9P63F,AW5O1RK3W60FC,3S4AW7T80KJ4L3A3KV3CGRN8HPF4LY,8W4S4,8W4S4,3S4AW7T80KJ4L3A3KV3CGRN8HPF4LY,3S4AW7T80KJ4L3A3KV3CGRN8HPF4LY,338054,338054,1,0.03,"""",null,null,"<div class = fixationbox><div class = fixation>+</div></div>","""","""","""","""","""","""","""","""","2021-12-31 04:27:41",68.109.61.30,"Mozilla/5.0 (Windows NT 10.0; Win64; x64) AppleWebKit/537.36 (KHTML, like Gecko) Chrome/96.0.4664.110 Safari/537.36",WebKit,Chrome,96.0.4664.110,Windows,10.0,ac0f2dffeffaa78d35a552e03d03f0a8
24,1,"""",test_procedure,stim_test,canvas-button-response,44,292962,0.0-11.0-0.0-1.1,3SD15I2WEBVYX2RZ7BNPTJHHA9P63F,AW5O1RK3W60FC,3S4AW7T80KJ4L3A3KV3CGRN8HPF4LY,8W4S4,8W4S4,3S4AW7T80KJ4L3A3KV3CGRN8HPF4LY,3S4AW7T80KJ4L3A3KV3CGRN8HPF4LY,338054,338054,1,0.03,"""",9265,1,stim2,0,Counter-clockwise,false,"""",0.01,120,"""","""","2021-12-31 04:27:41",68.109.61.30,"Mozilla/5.0 (Windows NT 10.0; Win64; x64) AppleWebKit/537.36 (KHTML, like Gecko) Chrome/96.0.4664.110 Safari/537.36",WebKit,Chrome,96.0.4664.110,Windows,10.0,ac0f2dffeffaa78d35a552e03d03f0a8
24,1,"""",test_procedure,confidence_rating,html-slider-response,45,296674,0.0-11.0-0.0-2.1,3SD15I2WEBVYX2RZ7BNPTJHHA9P63F,AW5O1RK3W60FC,3S4AW7T80KJ4L3A3KV3CGRN8HPF4LY,8W4S4,8W4S4,3S4AW7T80KJ4L3A3KV3CGRN8HPF4LY,3S4AW7T80KJ4L3A3KV3CGRN8HPF4LY,338054,338054,1,0.03,"""",3710.5999999046326,0,"<div id=""message-div""><p>How confident are you that your clockwise/counter-clockwise response just now was accurate? Please rate your confidence on the slider bar below.</p></div>","""","""","""",50,"""","""","""",0,"2021-12-31 04:27:41",68.109.61.30,"Mozilla/5.0 (Windows NT 10.0; Win64; x64) AppleWebKit/537.36 (KHTML, like Gecko) Chrome/96.0.4664.110 Safari/537.36",WebKit,Chrome,96.0.4664.110,Windows,10.0,ac0f2dffeffaa78d35a552e03d03f0a8
24,1,"""",test_procedure,fixation,html-keyboard-response,46,297177,0.0-11.0-0.0-0.2,3SD15I2WEBVYX2RZ7BNPTJHHA9P63F,AW5O1RK3W60FC,3S4AW7T80KJ4L3A3KV3CGRN8HPF4LY,8W4S4,8W4S4,3S4AW7T80KJ4L3A3KV3CGRN8HPF4LY,3S4AW7T80KJ4L3A3KV3CGRN8HPF4LY,338054,338054,1,0.03,"""",null,null,"<div class = fixationbox><div class = fixation>+</div></div>","""","""","""","""","""","""","""","""","2021-12-31 04:27:41",68.109.61.30,"Mozilla/5.0 (Windows NT 10.0; Win64; x64) AppleWebKit/537.36 (KHTML, like Gecko) Chrome/96.0.4664.110 Safari/537.36",WebKit,Chrome,96.0.4664.110,Windows,10.0,ac0f2dffeffaa78d35a552e03d03f0a8
24,1,"""",test_procedure,stim_test,canvas-button-response,47,298538,0.0-11.0-0.0-1.2,3SD15I2WEBVYX2RZ7BNPTJHHA9P63F,AW5O1RK3W60FC,3S4AW7T80KJ4L3A3KV3CGRN8HPF4LY,8W4S4,8W4S4,3S4AW7T80KJ4L3A3KV3CGRN8HPF4LY,3S4AW7T80KJ4L3A3KV3CGRN8HPF4LY,338054,338054,1,0.03,"""",1305.7999999523163,0,catchStim2,0,Counter-clockwise,true,"""",0.01,120,0.6,"""","2021-12-31 04:27:41",68.109.61.30,"Mozilla/5.0 (Windows NT 10.0; Win64; x64) AppleWebKit/537.36 (KHTML, like Gecko) Chrome/96.0.4664.110 Safari/537.36",WebKit,Chrome,96.0.4664.110,Windows,10.0,ac0f2dffeffaa78d35a552e03d03f0a8
24,1,"""",test_procedure,confidence_rating,html-slider-response,48,301458,0.0-11.0-0.0-2.2,3SD15I2WEBVYX2RZ7BNPTJHHA9P63F,AW5O1RK3W60FC,3S4AW7T80KJ4L3A3KV3CGRN8HPF4LY,8W4S4,8W4S4,3S4AW7T80KJ4L3A3KV3CGRN8HPF4LY,3S4AW7T80KJ4L3A3KV3CGRN8HPF4LY,338054,338054,1,0.03,"""",2919,99,"<div id=""message-div""><p>How confident are you that your clockwise/counter-clockwise response just now was accurate? Please rate your confidence on the slider bar below.</p></div>","""","""","""",50,"""","""","""",99,"2021-12-31 04:27:41",68.109.61.30,"Mozilla/5.0 (Windows NT 10.0; Win64; x64) AppleWebKit/537.36 (KHTML, like Gecko) Chrome/96.0.4664.110 Safari/537.36",WebKit,Chrome,96.0.4664.110,Windows,10.0,ac0f2dffeffaa78d35a552e03d03f0a8
24,1,"""",test_procedure,fixation,html-keyboard-response,49,301960,0.0-11.0-0.0-0.3,3SD15I2WEBVYX2RZ7BNPTJHHA9P63F,AW5O1RK3W60FC,3S4AW7T80KJ4L3A3KV3CGRN8HPF4LY,8W4S4,8W4S4,3S4AW7T80KJ4L3A3KV3CGRN8HPF4LY,3S4AW7T80KJ4L3A3KV3CGRN8HPF4LY,338054,338054,1,0.03,"""",null,null,"<div class = fixationbox><div class = fixation>+</div></div>","""","""","""","""","""","""","""","""","2021-12-31 04:27:41",68.109.61.30,"Mozilla/5.0 (Windows NT 10.0; Win64; x64) AppleWebKit/537.36 (KHTML, like Gecko) Chrome/96.0.4664.110 Safari/537.36",WebKit,Chrome,96.0.4664.110,Windows,10.0,ac0f2dffeffaa78d35a552e03d03f0a8
24,1,"""",test_procedure,stim_test,canvas-button-response,50,303050,0.0-11.0-0.0-1.3,3SD15I2WEBVYX2RZ7BNPTJHHA9P63F,AW5O1RK3W60FC,3S4AW7T80KJ4L3A3KV3CGRN8HPF4LY,8W4S4,8W4S4,3S4AW7T80KJ4L3A3KV3CGRN8HPF4LY,3S4AW7T80KJ4L3A3KV3CGRN8HPF4LY,338054,338054,1,0.03,"""",1028.7999999523163,1,catchStim1,1,Clockwise,true,"""",0.01,60,0.6,"""","2021-12-31 04:27:41",68.109.61.30,"Mozilla/5.0 (Windows NT 10.0; Win64; x64) AppleWebKit/537.36 (KHTML, like Gecko) Chrome/96.0.4664.110 Safari/537.36",WebKit,Chrome,96.0.4664.110,Windows,10.0,ac0f2dffeffaa78d35a552e03d03f0a8
24,1,"""",test_procedure,confidence_rating,html-slider-response,51,308163,0.0-11.0-0.0-2.3,3SD15I2WEBVYX2RZ7BNPTJHHA9P63F,AW5O1RK3W60FC,3S4AW7T80KJ4L3A3KV3CGRN8HPF4LY,8W4S4,8W4S4,3S4AW7T80KJ4L3A3KV3CGRN8HPF4LY,3S4AW7T80KJ4L3A3KV3CGRN8HPF4LY,338054,338054,1,0.03,"""",5109.700000047684,99,"<div id=""message-div""><p>How confident are you that your clockwise/counter-clockwise response just now was accurate? Please rate your confidence on the slider bar below.</p></div>","""","""","""",50,"""","""","""",99,"2021-12-31 04:27:41",68.109.61.30,"Mozilla/5.0 (Windows NT 10.0; Win64; x64) AppleWebKit/537.36 (KHTML, like Gecko) Chrome/96.0.4664.110 Safari/537.36",WebKit,Chrome,96.0.4664.110,Windows,10.0,ac0f2dffeffaa78d35a552e03d03f0a8
24,1,"""",test_procedure,fixation,html-keyboard-response,52,308665,0.0-11.0-0.0-0.4,3SD15I2WEBVYX2RZ7BNPTJHHA9P63F,AW5O1RK3W60FC,3S4AW7T80KJ4L3A3KV3CGRN8HPF4LY,8W4S4,8W4S4,3S4AW7T80KJ4L3A3KV3CGRN8HPF4LY,3S4AW7T80KJ4L3A3KV3CGRN8HPF4LY,338054,338054,1,0.03,"""",null,null,"<div class = fixationbox><div class = fixation>+</div></div>","""","""","""","""","""","""","""","""","2021-12-31 04:27:41",68.109.61.30,"Mozilla/5.0 (Windows NT 10.0; Win64; x64) AppleWebKit/537.36 (KHTML, like Gecko) Chrome/96.0.4664.110 Safari/537.36",WebKit,Chrome,96.0.4664.110,Windows,10.0,ac0f2dffeffaa78d35a552e03d03f0a8
24,1,"""",test_procedure,stim_test,canvas-button-response,53,313731,0.0-11.0-0.0-1.4,3SD15I2WEBVYX2RZ7BNPTJHHA9P63F,AW5O1RK3W60FC,3S4AW7T80KJ4L3A3KV3CGRN8HPF4LY,8W4S4,8W4S4,3S4AW7T80KJ4L3A3KV3CGRN8HPF4LY,3S4AW7T80KJ4L3A3KV3CGRN8HPF4LY,338054,338054,1,0.03,"""",5012.699999809265,1,catchStim7,1,Clockwise,true,"""",0.3,60,0.001,"""","2021-12-31 04:27:41",68.109.61.30,"Mozilla/5.0 (Windows NT 10.0; Win64; x64) AppleWebKit/537.36 (KHTML, like Gecko) Chrome/96.0.4664.110 Safari/537.36",WebKit,Chrome,96.0.4664.110,Windows,10.0,ac0f2dffeffaa78d35a552e03d03f0a8
24,1,"""",test_procedure,confidence_rating,html-slider-response,54,319122,0.0-11.0-0.0-2.4,3SD15I2WEBVYX2RZ7BNPTJHHA9P63F,AW5O1RK3W60FC,3S4AW7T80KJ4L3A3KV3CGRN8HPF4LY,8W4S4,8W4S4,3S4AW7T80KJ4L3A3KV3CGRN8HPF4LY,3S4AW7T80KJ4L3A3KV3CGRN8HPF4LY,338054,338054,1,0.03,"""",5388.600000143051,5,"<div id=""message-div""><p>How confident are you that your clockwise/counter-clockwise response just now was accurate? Please rate your confidence on the slider bar below.</p></div>","""","""","""",50,"""","""","""",5,"2021-12-31 04:27:41",68.109.61.30,"Mozilla/5.0 (Windows NT 10.0; Win64; x64) AppleWebKit/537.36 (KHTML, like Gecko) Chrome/96.0.4664.110 Safari/537.36",WebKit,Chrome,96.0.4664.110,Windows,10.0,ac0f2dffeffaa78d35a552e03d03f0a8
24,1,"""",test_procedure,fixation,html-keyboard-response,55,319624,0.0-11.0-0.0-0.5,3SD15I2WEBVYX2RZ7BNPTJHHA9P63F,AW5O1RK3W60FC,3S4AW7T80KJ4L3A3KV3CGRN8HPF4LY,8W4S4,8W4S4,3S4AW7T80KJ4L3A3KV3CGRN8HPF4LY,3S4AW7T80KJ4L3A3KV3CGRN8HPF4LY,338054,338054,1,0.03,"""",null,null,"<div class = fixationbox><div class = fixation>+</div></div>","""","""","""","""","""","""","""","""","2021-12-31 04:27:41",68.109.61.30,"Mozilla/5.0 (Windows NT 10.0; Win64; x64) AppleWebKit/537.36 (KHTML, like Gecko) Chrome/96.0.4664.110 Safari/537.36",WebKit,Chrome,96.0.4664.110,Windows,10.0,ac0f2dffeffaa78d35a552e03d03f0a8
24,1,"""",test_procedure,stim_test,canvas-button-response,56,324378,0.0-11.0-0.0-1.5,3SD15I2WEBVYX2RZ7BNPTJHHA9P63F,AW5O1RK3W60FC,3S4AW7T80KJ4L3A3KV3CGRN8HPF4LY,8W4S4,8W4S4,3S4AW7T80KJ4L3A3KV3CGRN8HPF4LY,3S4AW7T80KJ4L3A3KV3CGRN8HPF4LY,338054,338054,1,0.03,"""",4696.200000047684,1,stim1,1,Clockwise,true,"""",0.01,60,"""","""","2021-12-31 04:27:41",68.109.61.30,"Mozilla/5.0 (Windows NT 10.0; Win64; x64) AppleWebKit/537.36 (KHTML, like Gecko) Chrome/96.0.4664.110 Safari/537.36",WebKit,Chrome,96.0.4664.110,Windows,10.0,ac0f2dffeffaa78d35a552e03d03f0a8
24,1,"""",test_procedure,confidence_rating,html-slider-response,57,327395,0.0-11.0-0.0-2.5,3SD15I2WEBVYX2RZ7BNPTJHHA9P63F,AW5O1RK3W60FC,3S4AW7T80KJ4L3A3KV3CGRN8HPF4LY,8W4S4,8W4S4,3S4AW7T80KJ4L3A3KV3CGRN8HPF4LY,3S4AW7T80KJ4L3A3KV3CGRN8HPF4LY,338054,338054,1,0.03,"""",3015,4,"<div id=""message-div""><p>How confident are you that your clockwise/counter-clockwise response just now was accurate? Please rate your confidence on the slider bar below.</p></div>","""","""","""",50,"""","""","""",4,"2021-12-31 04:27:41",68.109.61.30,"Mozilla/5.0 (Windows NT 10.0; Win64; x64) AppleWebKit/537.36 (KHTML, like Gecko) Chrome/96.0.4664.110 Safari/537.36",WebKit,Chrome,96.0.4664.110,Windows,10.0,ac0f2dffeffaa78d35a552e03d03f0a8
24,1,"""",test_procedure,fixation,html-keyboard-response,58,327898,0.0-11.0-0.0-0.6,3SD15I2WEBVYX2RZ7BNPTJHHA9P63F,AW5O1RK3W60FC,3S4AW7T80KJ4L3A3KV3CGRN8HPF4LY,8W4S4,8W4S4,3S4AW7T80KJ4L3A3KV3CGRN8HPF4LY,3S4AW7T80KJ4L3A3KV3CGRN8HPF4LY,338054,338054,1,0.03,"""",null,null,"<div class = fixationbox><div class = fixation>+</div></div>","""","""","""","""","""","""","""","""","2021-12-31 04:27:41",68.109.61.30,"Mozilla/5.0 (Windows NT 10.0; Win64; x64) AppleWebKit/537.36 (KHTML, like Gecko) Chrome/96.0.4664.110 Safari/537.36",WebKit,Chrome,96.0.4664.110,Windows,10.0,ac0f2dffeffaa78d35a552e03d03f0a8
24,1,"""",test_procedure,stim_test,canvas-button-response,59,333203,0.0-11.0-0.0-1.6,3SD15I2WEBVYX2RZ7BNPTJHHA9P63F,AW5O1RK3W60FC,3S4AW7T80KJ4L3A3KV3CGRN8HPF4LY,8W4S4,8W4S4,3S4AW7T80KJ4L3A3KV3CGRN8HPF4LY,3S4AW7T80KJ4L3A3KV3CGRN8HPF4LY,338054,338054,1,0.03,"""",5256.700000047684,1,stim3,1,Clockwise,true,"""",0.3,60,"""","""","2021-12-31 04:27:41",68.109.61.30,"Mozilla/5.0 (Windows NT 10.0; Win64; x64) AppleWebKit/537.36 (KHTML, like Gecko) Chrome/96.0.4664.110 Safari/537.36",WebKit,Chrome,96.0.4664.110,Windows,10.0,ac0f2dffeffaa78d35a552e03d03f0a8
24,1,"""",test_procedure,confidence_rating,html-slider-response,60,337194,0.0-11.0-0.0-2.6,3SD15I2WEBVYX2RZ7BNPTJHHA9P63F,AW5O1RK3W60FC,3S4AW7T80KJ4L3A3KV3CGRN8HPF4LY,8W4S4,8W4S4,3S4AW7T80KJ4L3A3KV3CGRN8HPF4LY,3S4AW7T80KJ4L3A3KV3CGRN8HPF4LY,338054,338054,1,0.03,"""",3990.600000143051,9,"<div id=""message-div""><p>How confident are you that your clockwise/counter-clockwise response just now was accurate? Please rate your confidence on the slider bar below.</p></div>","""","""","""",50,"""","""","""",9,"2021-12-31 04:27:41",68.109.61.30,"Mozilla/5.0 (Windows NT 10.0; Win64; x64) AppleWebKit/537.36 (KHTML, like Gecko) Chrome/96.0.4664.110 Safari/537.36",WebKit,Chrome,96.0.4664.110,Windows,10.0,ac0f2dffeffaa78d35a552e03d03f0a8
24,1,"""",test_procedure,fixation,html-keyboard-response,61,337697,0.0-11.0-0.0-0.7,3SD15I2WEBVYX2RZ7BNPTJHHA9P63F,AW5O1RK3W60FC,3S4AW7T80KJ4L3A3KV3CGRN8HPF4LY,8W4S4,8W4S4,3S4AW7T80KJ4L3A3KV3CGRN8HPF4LY,3S4AW7T80KJ4L3A3KV3CGRN8HPF4LY,338054,338054,1,0.03,"""",null,null,"<div class = fixationbox><div class = fixation>+</div></div>","""","""","""","""","""","""","""","""","2021-12-31 04:27:41",68.109.61.30,"Mozilla/5.0 (Windows NT 10.0; Win64; x64) AppleWebKit/537.36 (KHTML, like Gecko) Chrome/96.0.4664.110 Safari/537.36",WebKit,Chrome,96.0.4664.110,Windows,10.0,ac0f2dffeffaa78d35a552e03d03f0a8
24,1,"""",test_procedure,stim_test,canvas-button-response,62,342025,0.0-11.0-0.0-1.7,3SD15I2WEBVYX2RZ7BNPTJHHA9P63F,AW5O1RK3W60FC,3S4AW7T80KJ4L3A3KV3CGRN8HPF4LY,8W4S4,8W4S4,3S4AW7T80KJ4L3A3KV3CGRN8HPF4LY,3S4AW7T80KJ4L3A3KV3CGRN8HPF4LY,338054,338054,1,0.03,"""",4274.600000143051,0,stim1,1,Clockwise,false,"""",0.01,60,"""","""","2021-12-31 04:27:41",68.109.61.30,"Mozilla/5.0 (Windows NT 10.0; Win64; x64) AppleWebKit/537.36 (KHTML, like Gecko) Chrome/96.0.4664.110 Safari/537.36",WebKit,Chrome,96.0.4664.110,Windows,10.0,ac0f2dffeffaa78d35a552e03d03f0a8
24,1,"""",test_procedure,confidence_rating,html-slider-response,63,344434,0.0-11.0-0.0-2.7,3SD15I2WEBVYX2RZ7BNPTJHHA9P63F,AW5O1RK3W60FC,3S4AW7T80KJ4L3A3KV3CGRN8HPF4LY,8W4S4,8W4S4,3S4AW7T80KJ4L3A3KV3CGRN8HPF4LY,3S4AW7T80KJ4L3A3KV3CGRN8HPF4LY,338054,338054,1,0.03,"""",2407.2999999523163,0,"<div id=""message-div""><p>How confident are you that your clockwise/counter-clockwise response just now was accurate? Please rate your confidence on the slider bar below.</p></div>","""","""","""",50,"""","""","""",0,"2021-12-31 04:27:41",68.109.61.30,"Mozilla/5.0 (Windows NT 10.0; Win64; x64) AppleWebKit/537.36 (KHTML, like Gecko) Chrome/96.0.4664.110 Safari/537.36",WebKit,Chrome,96.0.4664.110,Windows,10.0,ac0f2dffeffaa78d35a552e03d03f0a8
24,1,"""",test_procedure,fixation,html-keyboard-response,64,344948,0.0-11.0-0.0-0.8,3SD15I2WEBVYX2RZ7BNPTJHHA9P63F,AW5O1RK3W60FC,3S4AW7T80KJ4L3A3KV3CGRN8HPF4LY,8W4S4,8W4S4,3S4AW7T80KJ4L3A3KV3CGRN8HPF4LY,3S4AW7T80KJ4L3A3KV3CGRN8HPF4LY,338054,338054,1,0.03,"""",null,null,"<div class = fixationbox><div class = fixation>+</div></div>","""","""","""","""","""","""","""","""","2021-12-31 04:27:41",68.109.61.30,"Mozilla/5.0 (Windows NT 10.0; Win64; x64) AppleWebKit/537.36 (KHTML, like Gecko) Chrome/96.0.4664.110 Safari/537.36",WebKit,Chrome,96.0.4664.110,Windows,10.0,ac0f2dffeffaa78d35a552e03d03f0a8
24,1,"""",test_procedure,stim_test,canvas-button-response,65,346858,0.0-11.0-0.0-1.8,3SD15I2WEBVYX2RZ7BNPTJHHA9P63F,AW5O1RK3W60FC,3S4AW7T80KJ4L3A3KV3CGRN8HPF4LY,8W4S4,8W4S4,3S4AW7T80KJ4L3A3KV3CGRN8HPF4LY,3S4AW7T80KJ4L3A3KV3CGRN8HPF4LY,338054,338054,1,0.03,"""",1859,1,stim1,1,Clockwise,true,"""",0.01,60,"""","""","2021-12-31 04:27:41",68.109.61.30,"Mozilla/5.0 (Windows NT 10.0; Win64; x64) AppleWebKit/537.36 (KHTML, like Gecko) Chrome/96.0.4664.110 Safari/537.36",WebKit,Chrome,96.0.4664.110,Windows,10.0,ac0f2dffeffaa78d35a552e03d03f0a8
24,1,"""",test_procedure,confidence_rating,html-slider-response,66,349778,0.0-11.0-0.0-2.8,3SD15I2WEBVYX2RZ7BNPTJHHA9P63F,AW5O1RK3W60FC,3S4AW7T80KJ4L3A3KV3CGRN8HPF4LY,8W4S4,8W4S4,3S4AW7T80KJ4L3A3KV3CGRN8HPF4LY,3S4AW7T80KJ4L3A3KV3CGRN8HPF4LY,338054,338054,1,0.03,"""",2918.399999856949,24,"<div id=""message-div""><p>How confident are you that your clockwise/counter-clockwise response just now was accurate? Please rate your confidence on the slider bar below.</p></div>","""","""","""",50,"""","""","""",24,"2021-12-31 04:27:41",68.109.61.30,"Mozilla/5.0 (Windows NT 10.0; Win64; x64) AppleWebKit/537.36 (KHTML, like Gecko) Chrome/96.0.4664.110 Safari/537.36",WebKit,Chrome,96.0.4664.110,Windows,10.0,ac0f2dffeffaa78d35a552e03d03f0a8
24,1,"""",test_procedure,fixation,html-keyboard-response,67,350279,0.0-11.0-0.0-0.9,3SD15I2WEBVYX2RZ7BNPTJHHA9P63F,AW5O1RK3W60FC,3S4AW7T80KJ4L3A3KV3CGRN8HPF4LY,8W4S4,8W4S4,3S4AW7T80KJ4L3A3KV3CGRN8HPF4LY,3S4AW7T80KJ4L3A3KV3CGRN8HPF4LY,338054,338054,1,0.03,"""",null,null,"<div class = fixationbox><div class = fixation>+</div></div>","""","""","""","""","""","""","""","""","2021-12-31 04:27:41",68.109.61.30,"Mozilla/5.0 (Windows NT 10.0; Win64; x64) AppleWebKit/537.36 (KHTML, like Gecko) Chrome/96.0.4664.110 Safari/537.36",WebKit,Chrome,96.0.4664.110,Windows,10.0,ac0f2dffeffaa78d35a552e03d03f0a8
24,1,"""",test_procedure,stim_test,canvas-button-response,68,353194,0.0-11.0-0.0-1.9,3SD15I2WEBVYX2RZ7BNPTJHHA9P63F,AW5O1RK3W60FC,3S4AW7T80KJ4L3A3KV3CGRN8HPF4LY,8W4S4,8W4S4,3S4AW7T80KJ4L3A3KV3CGRN8HPF4LY,3S4AW7T80KJ4L3A3KV3CGRN8HPF4LY,338054,338054,1,0.03,"""",2870.4000000953674,1,stim3,1,Clockwise,true,"""",0.3,60,"""","""","2021-12-31 04:27:41",68.109.61.30,"Mozilla/5.0 (Windows NT 10.0; Win64; x64) AppleWebKit/537.36 (KHTML, like Gecko) Chrome/96.0.4664.110 Safari/537.36",WebKit,Chrome,96.0.4664.110,Windows,10.0,ac0f2dffeffaa78d35a552e03d03f0a8
24,1,"""",test_procedure,confidence_rating,html-slider-response,69,355866,0.0-11.0-0.0-2.9,3SD15I2WEBVYX2RZ7BNPTJHHA9P63F,AW5O1RK3W60FC,3S4AW7T80KJ4L3A3KV3CGRN8HPF4LY,8W4S4,8W4S4,3S4AW7T80KJ4L3A3KV3CGRN8HPF4LY,3S4AW7T80KJ4L3A3KV3CGRN8HPF4LY,338054,338054,1,0.03,"""",2668.600000143051,28,"<div id=""message-div""><p>How confident are you that your clockwise/counter-clockwise response just now was accurate? Please rate your confidence on the slider bar below.</p></div>","""","""","""",50,"""","""","""",28,"2021-12-31 04:27:41",68.109.61.30,"Mozilla/5.0 (Windows NT 10.0; Win64; x64) AppleWebKit/537.36 (KHTML, like Gecko) Chrome/96.0.4664.110 Safari/537.36",WebKit,Chrome,96.0.4664.110,Windows,10.0,ac0f2dffeffaa78d35a552e03d03f0a8
24,1,"""",test_procedure,fixation,html-keyboard-response,70,356368,0.0-11.0-0.0-0.10,3SD15I2WEBVYX2RZ7BNPTJHHA9P63F,AW5O1RK3W60FC,3S4AW7T80KJ4L3A3KV3CGRN8HPF4LY,8W4S4,8W4S4,3S4AW7T80KJ4L3A3KV3CGRN8HPF4LY,3S4AW7T80KJ4L3A3KV3CGRN8HPF4LY,338054,338054,1,0.03,"""",null,null,"<div class = fixationbox><div class = fixation>+</div></div>","""","""","""","""","""","""","""","""","2021-12-31 04:27:41",68.109.61.30,"Mozilla/5.0 (Windows NT 10.0; Win64; x64) AppleWebKit/537.36 (KHTML, like Gecko) Chrome/96.0.4664.110 Safari/537.36",WebKit,Chrome,96.0.4664.110,Windows,10.0,ac0f2dffeffaa78d35a552e03d03f0a8
24,1,"""",test_procedure,stim_test,canvas-button-response,71,358171,0.0-11.0-0.0-1.10,3SD15I2WEBVYX2RZ7BNPTJHHA9P63F,AW5O1RK3W60FC,3S4AW7T80KJ4L3A3KV3CGRN8HPF4LY,8W4S4,8W4S4,3S4AW7T80KJ4L3A3KV3CGRN8HPF4LY,3S4AW7T80KJ4L3A3KV3CGRN8HPF4LY,338054,338054,1,0.03,"""",1746.5999999046326,0,stim4,0,Counter-clockwise,true,"""",0.3,120,"""","""","2021-12-31 04:27:41",68.109.61.30,"Mozilla/5.0 (Windows NT 10.0; Win64; x64) AppleWebKit/537.36 (KHTML, like Gecko) Chrome/96.0.4664.110 Safari/537.36",WebKit,Chrome,96.0.4664.110,Windows,10.0,ac0f2dffeffaa78d35a552e03d03f0a8
24,1,"""",test_procedure,confidence_rating,html-slider-response,72,360618,0.0-11.0-0.0-2.10,3SD15I2WEBVYX2RZ7BNPTJHHA9P63F,AW5O1RK3W60FC,3S4AW7T80KJ4L3A3KV3CGRN8HPF4LY,8W4S4,8W4S4,3S4AW7T80KJ4L3A3KV3CGRN8HPF4LY,3S4AW7T80KJ4L3A3KV3CGRN8HPF4LY,338054,338054,1,0.03,"""",2446.4000000953674,10,"<div id=""message-div""><p>How confident are you that your clockwise/counter-clockwise response just now was accurate? Please rate your confidence on the slider bar below.</p></div>","""","""","""",50,"""","""","""",10,"2021-12-31 04:27:41",68.109.61.30,"Mozilla/5.0 (Windows NT 10.0; Win64; x64) AppleWebKit/537.36 (KHTML, like Gecko) Chrome/96.0.4664.110 Safari/537.36",WebKit,Chrome,96.0.4664.110,Windows,10.0,ac0f2dffeffaa78d35a552e03d03f0a8
24,1,"""",test_procedure,fixation,html-keyboard-response,73,361122,0.0-11.0-0.0-0.11,3SD15I2WEBVYX2RZ7BNPTJHHA9P63F,AW5O1RK3W60FC,3S4AW7T80KJ4L3A3KV3CGRN8HPF4LY,8W4S4,8W4S4,3S4AW7T80KJ4L3A3KV3CGRN8HPF4LY,3S4AW7T80KJ4L3A3KV3CGRN8HPF4LY,338054,338054,1,0.03,"""",null,null,"<div class = fixationbox><div class = fixation>+</div></div>","""","""","""","""","""","""","""","""","2021-12-31 04:27:41",68.109.61.30,"Mozilla/5.0 (Windows NT 10.0; Win64; x64) AppleWebKit/537.36 (KHTML, like Gecko) Chrome/96.0.4664.110 Safari/537.36",WebKit,Chrome,96.0.4664.110,Windows,10.0,ac0f2dffeffaa78d35a552e03d03f0a8
24,1,"""",test_procedure,stim_test,canvas-button-response,74,363594,0.0-11.0-0.0-1.11,3SD15I2WEBVYX2RZ7BNPTJHHA9P63F,AW5O1RK3W60FC,3S4AW7T80KJ4L3A3KV3CGRN8HPF4LY,8W4S4,8W4S4,3S4AW7T80KJ4L3A3KV3CGRN8HPF4LY,3S4AW7T80KJ4L3A3KV3CGRN8HPF4LY,338054,338054,1,0.03,"""",2424.9000000953674,1,stim4,0,Counter-clockwise,false,"""",0.3,120,"""","""","2021-12-31 04:27:41",68.109.61.30,"Mozilla/5.0 (Windows NT 10.0; Win64; x64) AppleWebKit/537.36 (KHTML, like Gecko) Chrome/96.0.4664.110 Safari/537.36",WebKit,Chrome,96.0.4664.110,Windows,10.0,ac0f2dffeffaa78d35a552e03d03f0a8
24,1,"""",test_procedure,confidence_rating,html-slider-response,75,372202,0.0-11.0-0.0-2.11,3SD15I2WEBVYX2RZ7BNPTJHHA9P63F,AW5O1RK3W60FC,3S4AW7T80KJ4L3A3KV3CGRN8HPF4LY,8W4S4,8W4S4,3S4AW7T80KJ4L3A3KV3CGRN8HPF4LY,3S4AW7T80KJ4L3A3KV3CGRN8HPF4LY,338054,338054,1,0.03,"""",8606.800000190735,26,"<div id=""message-div""><p>How confident are you that your clockwise/counter-clockwise response just now was accurate? Please rate your confidence on the slider bar below.</p></div>","""","""","""",50,"""","""","""",26,"2021-12-31 04:27:41",68.109.61.30,"Mozilla/5.0 (Windows NT 10.0; Win64; x64) AppleWebKit/537.36 (KHTML, like Gecko) Chrome/96.0.4664.110 Safari/537.36",WebKit,Chrome,96.0.4664.110,Windows,10.0,ac0f2dffeffaa78d35a552e03d03f0a8
24,1,"""",test_procedure,fixation,html-keyboard-response,76,372706,0.0-11.0-0.0-0.12,3SD15I2WEBVYX2RZ7BNPTJHHA9P63F,AW5O1RK3W60FC,3S4AW7T80KJ4L3A3KV3CGRN8HPF4LY,8W4S4,8W4S4,3S4AW7T80KJ4L3A3KV3CGRN8HPF4LY,3S4AW7T80KJ4L3A3KV3CGRN8HPF4LY,338054,338054,1,0.03,"""",null,null,"<div class = fixationbox><div class = fixation>+</div></div>","""","""","""","""","""","""","""","""","2021-12-31 04:27:41",68.109.61.30,"Mozilla/5.0 (Windows NT 10.0; Win64; x64) AppleWebKit/537.36 (KHTML, like Gecko) Chrome/96.0.4664.110 Safari/537.36",WebKit,Chrome,96.0.4664.110,Windows,10.0,ac0f2dffeffaa78d35a552e03d03f0a8
24,1,"""",test_procedure,stim_test,canvas-button-response,77,393131,0.0-11.0-0.0-1.12,3SD15I2WEBVYX2RZ7BNPTJHHA9P63F,AW5O1RK3W60FC,3S4AW7T80KJ4L3A3KV3CGRN8HPF4LY,8W4S4,8W4S4,3S4AW7T80KJ4L3A3KV3CGRN8HPF4LY,3S4AW7T80KJ4L3A3KV3CGRN8HPF4LY,338054,338054,1,0.03,"""",20377.799999952316,0,catchStim3,1,Clockwise,false,"""",0.01,60,0.001,"""","2021-12-31 04:27:41",68.109.61.30,"Mozilla/5.0 (Windows NT 10.0; Win64; x64) AppleWebKit/537.36 (KHTML, like Gecko) Chrome/96.0.4664.110 Safari/537.36",WebKit,Chrome,96.0.4664.110,Windows,10.0,ac0f2dffeffaa78d35a552e03d03f0a8
24,1,"""",test_procedure,confidence_rating,html-slider-response,78,396402,0.0-11.0-0.0-2.12,3SD15I2WEBVYX2RZ7BNPTJHHA9P63F,AW5O1RK3W60FC,3S4AW7T80KJ4L3A3KV3CGRN8HPF4LY,8W4S4,8W4S4,3S4AW7T80KJ4L3A3KV3CGRN8HPF4LY,3S4AW7T80KJ4L3A3KV3CGRN8HPF4LY,338054,338054,1,0.03,"""",3267.600000143051,15,"<div id=""message-div""><p>How confident are you that your clockwise/counter-clockwise response just now was accurate? Please rate your confidence on the slider bar below.</p></div>","""","""","""",50,"""","""","""",15,"2021-12-31 04:27:41",68.109.61.30,"Mozilla/5.0 (Windows NT 10.0; Win64; x64) AppleWebKit/537.36 (KHTML, like Gecko) Chrome/96.0.4664.110 Safari/537.36",WebKit,Chrome,96.0.4664.110,Windows,10.0,ac0f2dffeffaa78d35a552e03d03f0a8
24,1,"""",test_procedure,fixation,html-keyboard-response,79,396904,0.0-11.0-0.0-0.13,3SD15I2WEBVYX2RZ7BNPTJHHA9P63F,AW5O1RK3W60FC,3S4AW7T80KJ4L3A3KV3CGRN8HPF4LY,8W4S4,8W4S4,3S4AW7T80KJ4L3A3KV3CGRN8HPF4LY,3S4AW7T80KJ4L3A3KV3CGRN8HPF4LY,338054,338054,1,0.03,"""",null,null,"<div class = fixationbox><div class = fixation>+</div></div>","""","""","""","""","""","""","""","""","2021-12-31 04:27:41",68.109.61.30,"Mozilla/5.0 (Windows NT 10.0; Win64; x64) AppleWebKit/537.36 (KHTML, like Gecko) Chrome/96.0.4664.110 Safari/537.36",WebKit,Chrome,96.0.4664.110,Windows,10.0,ac0f2dffeffaa78d35a552e03d03f0a8
24,1,"""",test_procedure,stim_test,canvas-button-response,80,401091,0.0-11.0-0.0-1.13,3SD15I2WEBVYX2RZ7BNPTJHHA9P63F,AW5O1RK3W60FC,3S4AW7T80KJ4L3A3KV3CGRN8HPF4LY,8W4S4,8W4S4,3S4AW7T80KJ4L3A3KV3CGRN8HPF4LY,3S4AW7T80KJ4L3A3KV3CGRN8HPF4LY,338054,338054,1,0.03,"""",4129.400000095367,0,stim2,0,Counter-clockwise,true,"""",0.01,120,"""","""","2021-12-31 04:27:41",68.109.61.30,"Mozilla/5.0 (Windows NT 10.0; Win64; x64) AppleWebKit/537.36 (KHTML, like Gecko) Chrome/96.0.4664.110 Safari/537.36",WebKit,Chrome,96.0.4664.110,Windows,10.0,ac0f2dffeffaa78d35a552e03d03f0a8
24,1,"""",test_procedure,confidence_rating,html-slider-response,81,405835,0.0-11.0-0.0-2.13,3SD15I2WEBVYX2RZ7BNPTJHHA9P63F,AW5O1RK3W60FC,3S4AW7T80KJ4L3A3KV3CGRN8HPF4LY,8W4S4,8W4S4,3S4AW7T80KJ4L3A3KV3CGRN8HPF4LY,3S4AW7T80KJ4L3A3KV3CGRN8HPF4LY,338054,338054,1,0.03,"""",4740.900000095367,18,"<div id=""message-div""><p>How confident are you that your clockwise/counter-clockwise response just now was accurate? Please rate your confidence on the slider bar below.</p></div>","""","""","""",50,"""","""","""",18,"2021-12-31 04:27:41",68.109.61.30,"Mozilla/5.0 (Windows NT 10.0; Win64; x64) AppleWebKit/537.36 (KHTML, like Gecko) Chrome/96.0.4664.110 Safari/537.36",WebKit,Chrome,96.0.4664.110,Windows,10.0,ac0f2dffeffaa78d35a552e03d03f0a8
24,1,"""",test_procedure,fixation,html-keyboard-response,82,406336,0.0-11.0-0.0-0.14,3SD15I2WEBVYX2RZ7BNPTJHHA9P63F,AW5O1RK3W60FC,3S4AW7T80KJ4L3A3KV3CGRN8HPF4LY,8W4S4,8W4S4,3S4AW7T80KJ4L3A3KV3CGRN8HPF4LY,3S4AW7T80KJ4L3A3KV3CGRN8HPF4LY,338054,338054,1,0.03,"""",null,null,"<div class = fixationbox><div class = fixation>+</div></div>","""","""","""","""","""","""","""","""","2021-12-31 04:27:41",68.109.61.30,"Mozilla/5.0 (Windows NT 10.0; Win64; x64) AppleWebKit/537.36 (KHTML, like Gecko) Chrome/96.0.4664.110 Safari/537.36",WebKit,Chrome,96.0.4664.110,Windows,10.0,ac0f2dffeffaa78d35a552e03d03f0a8
24,1,"""",test_procedure,stim_test,canvas-button-response,83,407955,0.0-11.0-0.0-1.14,3SD15I2WEBVYX2RZ7BNPTJHHA9P63F,AW5O1RK3W60FC,3S4AW7T80KJ4L3A3KV3CGRN8HPF4LY,8W4S4,8W4S4,3S4AW7T80KJ4L3A3KV3CGRN8HPF4LY,3S4AW7T80KJ4L3A3KV3CGRN8HPF4LY,338054,338054,1,0.03,"""",1552.2999999523163,1,stim1,1,Clockwise,true,"""",0.01,60,"""","""","2021-12-31 04:27:41",68.109.61.30,"Mozilla/5.0 (Windows NT 10.0; Win64; x64) AppleWebKit/537.36 (KHTML, like Gecko) Chrome/96.0.4664.110 Safari/537.36",WebKit,Chrome,96.0.4664.110,Windows,10.0,ac0f2dffeffaa78d35a552e03d03f0a8
24,1,"""",test_procedure,confidence_rating,html-slider-response,84,410331,0.0-11.0-0.0-2.14,3SD15I2WEBVYX2RZ7BNPTJHHA9P63F,AW5O1RK3W60FC,3S4AW7T80KJ4L3A3KV3CGRN8HPF4LY,8W4S4,8W4S4,3S4AW7T80KJ4L3A3KV3CGRN8HPF4LY,3S4AW7T80KJ4L3A3KV3CGRN8HPF4LY,338054,338054,1,0.03,"""",2372.899999856949,71,"<div id=""message-div""><p>How confident are you that your clockwise/counter-clockwise response just now was accurate? Please rate your confidence on the slider bar below.</p></div>","""","""","""",50,"""","""","""",71,"2021-12-31 04:27:41",68.109.61.30,"Mozilla/5.0 (Windows NT 10.0; Win64; x64) AppleWebKit/537.36 (KHTML, like Gecko) Chrome/96.0.4664.110 Safari/537.36",WebKit,Chrome,96.0.4664.110,Windows,10.0,ac0f2dffeffaa78d35a552e03d03f0a8
24,1,"""",test_procedure,fixation,html-keyboard-response,85,410832,0.0-11.0-0.0-0.15,3SD15I2WEBVYX2RZ7BNPTJHHA9P63F,AW5O1RK3W60FC,3S4AW7T80KJ4L3A3KV3CGRN8HPF4LY,8W4S4,8W4S4,3S4AW7T80KJ4L3A3KV3CGRN8HPF4LY,3S4AW7T80KJ4L3A3KV3CGRN8HPF4LY,338054,338054,1,0.03,"""",null,null,"<div class = fixationbox><div class = fixation>+</div></div>","""","""","""","""","""","""","""","""","2021-12-31 04:27:41",68.109.61.30,"Mozilla/5.0 (Windows NT 10.0; Win64; x64) AppleWebKit/537.36 (KHTML, like Gecko) Chrome/96.0.4664.110 Safari/537.36",WebKit,Chrome,96.0.4664.110,Windows,10.0,ac0f2dffeffaa78d35a552e03d03f0a8
24,1,"""",test_procedure,stim_test,canvas-button-response,86,412378,0.0-11.0-0.0-1.15,3SD15I2WEBVYX2RZ7BNPTJHHA9P63F,AW5O1RK3W60FC,3S4AW7T80KJ4L3A3KV3CGRN8HPF4LY,8W4S4,8W4S4,3S4AW7T80KJ4L3A3KV3CGRN8HPF4LY,3S4AW7T80KJ4L3A3KV3CGRN8HPF4LY,338054,338054,1,0.03,"""",1489.7999999523163,1,stim3,1,Clockwise,true,"""",0.3,60,"""","""","2021-12-31 04:27:41",68.109.61.30,"Mozilla/5.0 (Windows NT 10.0; Win64; x64) AppleWebKit/537.36 (KHTML, like Gecko) Chrome/96.0.4664.110 Safari/537.36",WebKit,Chrome,96.0.4664.110,Windows,10.0,ac0f2dffeffaa78d35a552e03d03f0a8
24,1,"""",test_procedure,confidence_rating,html-slider-response,87,417483,0.0-11.0-0.0-2.15,3SD15I2WEBVYX2RZ7BNPTJHHA9P63F,AW5O1RK3W60FC,3S4AW7T80KJ4L3A3KV3CGRN8HPF4LY,8W4S4,8W4S4,3S4AW7T80KJ4L3A3KV3CGRN8HPF4LY,3S4AW7T80KJ4L3A3KV3CGRN8HPF4LY,338054,338054,1,0.03,"""",5103.299999952316,63,"<div id=""message-div""><p>How confident are you that your clockwise/counter-clockwise response just now was accurate? Please rate your confidence on the slider bar below.</p></div>","""","""","""",50,"""","""","""",63,"2021-12-31 04:27:41",68.109.61.30,"Mozilla/5.0 (Windows NT 10.0; Win64; x64) AppleWebKit/537.36 (KHTML, like Gecko) Chrome/96.0.4664.110 Safari/537.36",WebKit,Chrome,96.0.4664.110,Windows,10.0,ac0f2dffeffaa78d35a552e03d03f0a8
24,1,"""",test_procedure,fixation,html-keyboard-response,88,417987,0.0-11.0-0.0-0.16,3SD15I2WEBVYX2RZ7BNPTJHHA9P63F,AW5O1RK3W60FC,3S4AW7T80KJ4L3A3KV3CGRN8HPF4LY,8W4S4,8W4S4,3S4AW7T80KJ4L3A3KV3CGRN8HPF4LY,3S4AW7T80KJ4L3A3KV3CGRN8HPF4LY,338054,338054,1,0.03,"""",null,null,"<div class = fixationbox><div class = fixation>+</div></div>","""","""","""","""","""","""","""","""","2021-12-31 04:27:41",68.109.61.30,"Mozilla/5.0 (Windows NT 10.0; Win64; x64) AppleWebKit/537.36 (KHTML, like Gecko) Chrome/96.0.4664.110 Safari/537.36",WebKit,Chrome,96.0.4664.110,Windows,10.0,ac0f2dffeffaa78d35a552e03d03f0a8
24,1,"""",test_procedure,stim_test,canvas-button-response,89,421330,0.0-11.0-0.0-1.16,3SD15I2WEBVYX2RZ7BNPTJHHA9P63F,AW5O1RK3W60FC,3S4AW7T80KJ4L3A3KV3CGRN8HPF4LY,8W4S4,8W4S4,3S4AW7T80KJ4L3A3KV3CGRN8HPF4LY,3S4AW7T80KJ4L3A3KV3CGRN8HPF4LY,338054,338054,1,0.03,"""",3292.600000143051,1,stim2,0,Counter-clockwise,false,"""",0.01,120,"""","""","2021-12-31 04:27:41",68.109.61.30,"Mozilla/5.0 (Windows NT 10.0; Win64; x64) AppleWebKit/537.36 (KHTML, like Gecko) Chrome/96.0.4664.110 Safari/537.36",WebKit,Chrome,96.0.4664.110,Windows,10.0,ac0f2dffeffaa78d35a552e03d03f0a8
24,1,"""",test_procedure,confidence_rating,html-slider-response,90,423586,0.0-11.0-0.0-2.16,3SD15I2WEBVYX2RZ7BNPTJHHA9P63F,AW5O1RK3W60FC,3S4AW7T80KJ4L3A3KV3CGRN8HPF4LY,8W4S4,8W4S4,3S4AW7T80KJ4L3A3KV3CGRN8HPF4LY,3S4AW7T80KJ4L3A3KV3CGRN8HPF4LY,338054,338054,1,0.03,"""",2254.699999809265,51,"<div id=""message-div""><p>How confident are you that your clockwise/counter-clockwise response just now was accurate? Please rate your confidence on the slider bar below.</p></div>","""","""","""",50,"""","""","""",51,"2021-12-31 04:27:41",68.109.61.30,"Mozilla/5.0 (Windows NT 10.0; Win64; x64) AppleWebKit/537.36 (KHTML, like Gecko) Chrome/96.0.4664.110 Safari/537.36",WebKit,Chrome,96.0.4664.110,Windows,10.0,ac0f2dffeffaa78d35a552e03d03f0a8
24,1,"""",test_procedure,fixation,html-keyboard-response,91,424090,0.0-11.0-0.0-0.17,3SD15I2WEBVYX2RZ7BNPTJHHA9P63F,AW5O1RK3W60FC,3S4AW7T80KJ4L3A3KV3CGRN8HPF4LY,8W4S4,8W4S4,3S4AW7T80KJ4L3A3KV3CGRN8HPF4LY,3S4AW7T80KJ4L3A3KV3CGRN8HPF4LY,338054,338054,1,0.03,"""",null,null,"<div class = fixationbox><div class = fixation>+</div></div>","""","""","""","""","""","""","""","""","2021-12-31 04:27:41",68.109.61.30,"Mozilla/5.0 (Windows NT 10.0; Win64; x64) AppleWebKit/537.36 (KHTML, like Gecko) Chrome/96.0.4664.110 Safari/537.36",WebKit,Chrome,96.0.4664.110,Windows,10.0,ac0f2dffeffaa78d35a552e03d03f0a8
24,1,"""",test_procedure,stim_test,canvas-button-response,92,426083,0.0-11.0-0.0-1.17,3SD15I2WEBVYX2RZ7BNPTJHHA9P63F,AW5O1RK3W60FC,3S4AW7T80KJ4L3A3KV3CGRN8HPF4LY,8W4S4,8W4S4,3S4AW7T80KJ4L3A3KV3CGRN8HPF4LY,3S4AW7T80KJ4L3A3KV3CGRN8HPF4LY,338054,338054,1,0.03,"""",1934.2999999523163,0,catchStim6,0,Counter-clockwise,true,"""",0.3,120,0.6,"""","2021-12-31 04:27:41",68.109.61.30,"Mozilla/5.0 (Windows NT 10.0; Win64; x64) AppleWebKit/537.36 (KHTML, like Gecko) Chrome/96.0.4664.110 Safari/537.36",WebKit,Chrome,96.0.4664.110,Windows,10.0,ac0f2dffeffaa78d35a552e03d03f0a8
24,1,"""",test_procedure,confidence_rating,html-slider-response,93,428362,0.0-11.0-0.0-2.17,3SD15I2WEBVYX2RZ7BNPTJHHA9P63F,AW5O1RK3W60FC,3S4AW7T80KJ4L3A3KV3CGRN8HPF4LY,8W4S4,8W4S4,3S4AW7T80KJ4L3A3KV3CGRN8HPF4LY,3S4AW7T80KJ4L3A3KV3CGRN8HPF4LY,338054,338054,1,0.03,"""",2278.2000000476837,100,"<div id=""message-div""><p>How confident are you that your clockwise/counter-clockwise response just now was accurate? Please rate your confidence on the slider bar below.</p></div>","""","""","""",50,"""","""","""",100,"2021-12-31 04:27:41",68.109.61.30,"Mozilla/5.0 (Windows NT 10.0; Win64; x64) AppleWebKit/537.36 (KHTML, like Gecko) Chrome/96.0.4664.110 Safari/537.36",WebKit,Chrome,96.0.4664.110,Windows,10.0,ac0f2dffeffaa78d35a552e03d03f0a8
24,1,"""",test_procedure,fixation,html-keyboard-response,94,428863,0.0-11.0-0.0-0.18,3SD15I2WEBVYX2RZ7BNPTJHHA9P63F,AW5O1RK3W60FC,3S4AW7T80KJ4L3A3KV3CGRN8HPF4LY,8W4S4,8W4S4,3S4AW7T80KJ4L3A3KV3CGRN8HPF4LY,3S4AW7T80KJ4L3A3KV3CGRN8HPF4LY,338054,338054,1,0.03,"""",null,null,"<div class = fixationbox><div class = fixation>+</div></div>","""","""","""","""","""","""","""","""","2021-12-31 04:27:41",68.109.61.30,"Mozilla/5.0 (Windows NT 10.0; Win64; x64) AppleWebKit/537.36 (KHTML, like Gecko) Chrome/96.0.4664.110 Safari/537.36",WebKit,Chrome,96.0.4664.110,Windows,10.0,ac0f2dffeffaa78d35a552e03d03f0a8
24,1,"""",test_procedure,stim_test,canvas-button-response,95,431178,0.0-11.0-0.0-1.18,3SD15I2WEBVYX2RZ7BNPTJHHA9P63F,AW5O1RK3W60FC,3S4AW7T80KJ4L3A3KV3CGRN8HPF4LY,8W4S4,8W4S4,3S4AW7T80KJ4L3A3KV3CGRN8HPF4LY,3S4AW7T80KJ4L3A3KV3CGRN8HPF4LY,338054,338054,1,0.03,"""",2257.7999999523163,0,stim2,0,Counter-clockwise,true,"""",0.01,120,"""","""","2021-12-31 04:27:41",68.109.61.30,"Mozilla/5.0 (Windows NT 10.0; Win64; x64) AppleWebKit/537.36 (KHTML, like Gecko) Chrome/96.0.4664.110 Safari/537.36",WebKit,Chrome,96.0.4664.110,Windows,10.0,ac0f2dffeffaa78d35a552e03d03f0a8
24,1,"""",test_procedure,confidence_rating,html-slider-response,96,434339,0.0-11.0-0.0-2.18,3SD15I2WEBVYX2RZ7BNPTJHHA9P63F,AW5O1RK3W60FC,3S4AW7T80KJ4L3A3KV3CGRN8HPF4LY,8W4S4,8W4S4,3S4AW7T80KJ4L3A3KV3CGRN8HPF4LY,3S4AW7T80KJ4L3A3KV3CGRN8HPF4LY,338054,338054,1,0.03,"""",3156.5,59,"<div id=""message-div""><p>How confident are you that your clockwise/counter-clockwise response just now was accurate? Please rate your confidence on the slider bar below.</p></div>","""","""","""",50,"""","""","""",59,"2021-12-31 04:27:41",68.109.61.30,"Mozilla/5.0 (Windows NT 10.0; Win64; x64) AppleWebKit/537.36 (KHTML, like Gecko) Chrome/96.0.4664.110 Safari/537.36",WebKit,Chrome,96.0.4664.110,Windows,10.0,ac0f2dffeffaa78d35a552e03d03f0a8
24,1,"""",test_procedure,fixation,html-keyboard-response,97,434841,0.0-11.0-0.0-0.19,3SD15I2WEBVYX2RZ7BNPTJHHA9P63F,AW5O1RK3W60FC,3S4AW7T80KJ4L3A3KV3CGRN8HPF4LY,8W4S4,8W4S4,3S4AW7T80KJ4L3A3KV3CGRN8HPF4LY,3S4AW7T80KJ4L3A3KV3CGRN8HPF4LY,338054,338054,1,0.03,"""",null,null,"<div class = fixationbox><div class = fixation>+</div></div>","""","""","""","""","""","""","""","""","2021-12-31 04:27:41",68.109.61.30,"Mozilla/5.0 (Windows NT 10.0; Win64; x64) AppleWebKit/537.36 (KHTML, like Gecko) Chrome/96.0.4664.110 Safari/537.36",WebKit,Chrome,96.0.4664.110,Windows,10.0,ac0f2dffeffaa78d35a552e03d03f0a8
24,1,"""",test_procedure,stim_test,canvas-button-response,98,436835,0.0-11.0-0.0-1.19,3SD15I2WEBVYX2RZ7BNPTJHHA9P63F,AW5O1RK3W60FC,3S4AW7T80KJ4L3A3KV3CGRN8HPF4LY,8W4S4,8W4S4,3S4AW7T80KJ4L3A3KV3CGRN8HPF4LY,3S4AW7T80KJ4L3A3KV3CGRN8HPF4LY,338054,338054,1,0.03,"""",1944.9000000953674,1,stim4,0,Counter-clockwise,false,"""",0.3,120,"""","""","2021-12-31 04:27:41",68.109.61.30,"Mozilla/5.0 (Windows NT 10.0; Win64; x64) AppleWebKit/537.36 (KHTML, like Gecko) Chrome/96.0.4664.110 Safari/537.36",WebKit,Chrome,96.0.4664.110,Windows,10.0,ac0f2dffeffaa78d35a552e03d03f0a8
24,1,"""",test_procedure,confidence_rating,html-slider-response,99,438586,0.0-11.0-0.0-2.19,3SD15I2WEBVYX2RZ7BNPTJHHA9P63F,AW5O1RK3W60FC,3S4AW7T80KJ4L3A3KV3CGRN8HPF4LY,8W4S4,8W4S4,3S4AW7T80KJ4L3A3KV3CGRN8HPF4LY,3S4AW7T80KJ4L3A3KV3CGRN8HPF4LY,338054,338054,1,0.03,"""",1749.8000001907349,61,"<div id=""message-div""><p>How confident are you that your clockwise/counter-clockwise response just now was accurate? Please rate your confidence on the slider bar below.</p></div>","""","""","""",50,"""","""","""",61,"2021-12-31 04:27:41",68.109.61.30,"Mozilla/5.0 (Windows NT 10.0; Win64; x64) AppleWebKit/537.36 (KHTML, like Gecko) Chrome/96.0.4664.110 Safari/537.36",WebKit,Chrome,96.0.4664.110,Windows,10.0,ac0f2dffeffaa78d35a552e03d03f0a8
24,1,"""",test_procedure,fixation,html-keyboard-response,100,439090,0.0-11.0-0.0-0.20,3SD15I2WEBVYX2RZ7BNPTJHHA9P63F,AW5O1RK3W60FC,3S4AW7T80KJ4L3A3KV3CGRN8HPF4LY,8W4S4,8W4S4,3S4AW7T80KJ4L3A3KV3CGRN8HPF4LY,3S4AW7T80KJ4L3A3KV3CGRN8HPF4LY,338054,338054,1,0.03,"""",null,null,"<div class = fixationbox><div class = fixation>+</div></div>","""","""","""","""","""","""","""","""","2021-12-31 04:27:41",68.109.61.30,"Mozilla/5.0 (Windows NT 10.0; Win64; x64) AppleWebKit/537.36 (KHTML, like Gecko) Chrome/96.0.4664.110 Safari/537.36",WebKit,Chrome,96.0.4664.110,Windows,10.0,ac0f2dffeffaa78d35a552e03d03f0a8
24,1,"""",test_procedure,stim_test,canvas-button-response,101,442843,0.0-11.0-0.0-1.20,3SD15I2WEBVYX2RZ7BNPTJHHA9P63F,AW5O1RK3W60FC,3S4AW7T80KJ4L3A3KV3CGRN8HPF4LY,8W4S4,8W4S4,3S4AW7T80KJ4L3A3KV3CGRN8HPF4LY,3S4AW7T80KJ4L3A3KV3CGRN8HPF4LY,338054,338054,1,0.03,"""",3704.7999999523163,0,catchStim4,0,Counter-clockwise,true,"""",0.01,120,0.001,"""","2021-12-31 04:27:41",68.109.61.30,"Mozilla/5.0 (Windows NT 10.0; Win64; x64) AppleWebKit/537.36 (KHTML, like Gecko) Chrome/96.0.4664.110 Safari/537.36",WebKit,Chrome,96.0.4664.110,Windows,10.0,ac0f2dffeffaa78d35a552e03d03f0a8
24,1,"""",test_procedure,confidence_rating,html-slider-response,102,445923,0.0-11.0-0.0-2.20,3SD15I2WEBVYX2RZ7BNPTJHHA9P63F,AW5O1RK3W60FC,3S4AW7T80KJ4L3A3KV3CGRN8HPF4LY,8W4S4,8W4S4,3S4AW7T80KJ4L3A3KV3CGRN8HPF4LY,3S4AW7T80KJ4L3A3KV3CGRN8HPF4LY,338054,338054,1,0.03,"""",3078.5999999046326,32,"<div id=""message-div""><p>How confident are you that your clockwise/counter-clockwise response just now was accurate? Please rate your confidence on the slider bar below.</p></div>","""","""","""",50,"""","""","""",32,"2021-12-31 04:27:41",68.109.61.30,"Mozilla/5.0 (Windows NT 10.0; Win64; x64) AppleWebKit/537.36 (KHTML, like Gecko) Chrome/96.0.4664.110 Safari/537.36",WebKit,Chrome,96.0.4664.110,Windows,10.0,ac0f2dffeffaa78d35a552e03d03f0a8
24,1,"""",test_procedure,fixation,html-keyboard-response,103,446426,0.0-11.0-0.0-0.21,3SD15I2WEBVYX2RZ7BNPTJHHA9P63F,AW5O1RK3W60FC,3S4AW7T80KJ4L3A3KV3CGRN8HPF4LY,8W4S4,8W4S4,3S4AW7T80KJ4L3A3KV3CGRN8HPF4LY,3S4AW7T80KJ4L3A3KV3CGRN8HPF4LY,338054,338054,1,0.03,"""",null,null,"<div class = fixationbox><div class = fixation>+</div></div>","""","""","""","""","""","""","""","""","2021-12-31 04:27:41",68.109.61.30,"Mozilla/5.0 (Windows NT 10.0; Win64; x64) AppleWebKit/537.36 (KHTML, like Gecko) Chrome/96.0.4664.110 Safari/537.36",WebKit,Chrome,96.0.4664.110,Windows,10.0,ac0f2dffeffaa78d35a552e03d03f0a8
24,1,"""",test_procedure,stim_test,canvas-button-response,104,447899,0.0-11.0-0.0-1.21,3SD15I2WEBVYX2RZ7BNPTJHHA9P63F,AW5O1RK3W60FC,3S4AW7T80KJ4L3A3KV3CGRN8HPF4LY,8W4S4,8W4S4,3S4AW7T80KJ4L3A3KV3CGRN8HPF4LY,3S4AW7T80KJ4L3A3KV3CGRN8HPF4LY,338054,338054,1,0.03,"""",1426.2000000476837,1,stim3,1,Clockwise,true,"""",0.3,60,"""","""","2021-12-31 04:27:41",68.109.61.30,"Mozilla/5.0 (Windows NT 10.0; Win64; x64) AppleWebKit/537.36 (KHTML, like Gecko) Chrome/96.0.4664.110 Safari/537.36",WebKit,Chrome,96.0.4664.110,Windows,10.0,ac0f2dffeffaa78d35a552e03d03f0a8
24,1,"""",test_procedure,confidence_rating,html-slider-response,105,449731,0.0-11.0-0.0-2.21,3SD15I2WEBVYX2RZ7BNPTJHHA9P63F,AW5O1RK3W60FC,3S4AW7T80KJ4L3A3KV3CGRN8HPF4LY,8W4S4,8W4S4,3S4AW7T80KJ4L3A3KV3CGRN8HPF4LY,3S4AW7T80KJ4L3A3KV3CGRN8HPF4LY,338054,338054,1,0.03,"""",1830.5,78,"<div id=""message-div""><p>How confident are you that your clockwise/counter-clockwise response just now was accurate? Please rate your confidence on the slider bar below.</p></div>","""","""","""",50,"""","""","""",78,"2021-12-31 04:27:41",68.109.61.30,"Mozilla/5.0 (Windows NT 10.0; Win64; x64) AppleWebKit/537.36 (KHTML, like Gecko) Chrome/96.0.4664.110 Safari/537.36",WebKit,Chrome,96.0.4664.110,Windows,10.0,ac0f2dffeffaa78d35a552e03d03f0a8
24,1,"""",test_procedure,fixation,html-keyboard-response,106,450239,0.0-11.0-0.0-0.22,3SD15I2WEBVYX2RZ7BNPTJHHA9P63F,AW5O1RK3W60FC,3S4AW7T80KJ4L3A3KV3CGRN8HPF4LY,8W4S4,8W4S4,3S4AW7T80KJ4L3A3KV3CGRN8HPF4LY,3S4AW7T80KJ4L3A3KV3CGRN8HPF4LY,338054,338054,1,0.03,"""",null,null,"<div class = fixationbox><div class = fixation>+</div></div>","""","""","""","""","""","""","""","""","2021-12-31 04:27:41",68.109.61.30,"Mozilla/5.0 (Windows NT 10.0; Win64; x64) AppleWebKit/537.36 (KHTML, like Gecko) Chrome/96.0.4664.110 Safari/537.36",WebKit,Chrome,96.0.4664.110,Windows,10.0,ac0f2dffeffaa78d35a552e03d03f0a8
24,1,"""",test_procedure,stim_test,canvas-button-response,107,454171,0.0-11.0-0.0-1.22,3SD15I2WEBVYX2RZ7BNPTJHHA9P63F,AW5O1RK3W60FC,3S4AW7T80KJ4L3A3KV3CGRN8HPF4LY,8W4S4,8W4S4,3S4AW7T80KJ4L3A3KV3CGRN8HPF4LY,3S4AW7T80KJ4L3A3KV3CGRN8HPF4LY,338054,338054,1,0.03,"""",3884.7999999523163,1,stim4,0,Counter-clockwise,false,"""",0.3,120,"""","""","2021-12-31 04:27:41",68.109.61.30,"Mozilla/5.0 (Windows NT 10.0; Win64; x64) AppleWebKit/537.36 (KHTML, like Gecko) Chrome/96.0.4664.110 Safari/537.36",WebKit,Chrome,96.0.4664.110,Windows,10.0,ac0f2dffeffaa78d35a552e03d03f0a8
24,1,"""",test_procedure,confidence_rating,html-slider-response,108,456595,0.0-11.0-0.0-2.22,3SD15I2WEBVYX2RZ7BNPTJHHA9P63F,AW5O1RK3W60FC,3S4AW7T80KJ4L3A3KV3CGRN8HPF4LY,8W4S4,8W4S4,3S4AW7T80KJ4L3A3KV3CGRN8HPF4LY,3S4AW7T80KJ4L3A3KV3CGRN8HPF4LY,338054,338054,1,0.03,"""",2420.4000000953674,37,"<div id=""message-div""><p>How confident are you that your clockwise/counter-clockwise response just now was accurate? Please rate your confidence on the slider bar below.</p></div>","""","""","""",50,"""","""","""",37,"2021-12-31 04:27:41",68.109.61.30,"Mozilla/5.0 (Windows NT 10.0; Win64; x64) AppleWebKit/537.36 (KHTML, like Gecko) Chrome/96.0.4664.110 Safari/537.36",WebKit,Chrome,96.0.4664.110,Windows,10.0,ac0f2dffeffaa78d35a552e03d03f0a8
24,1,"""",test_procedure,fixation,html-keyboard-response,109,457096,0.0-11.0-0.0-0.23,3SD15I2WEBVYX2RZ7BNPTJHHA9P63F,AW5O1RK3W60FC,3S4AW7T80KJ4L3A3KV3CGRN8HPF4LY,8W4S4,8W4S4,3S4AW7T80KJ4L3A3KV3CGRN8HPF4LY,3S4AW7T80KJ4L3A3KV3CGRN8HPF4LY,338054,338054,1,0.03,"""",null,null,"<div class = fixationbox><div class = fixation>+</div></div>","""","""","""","""","""","""","""","""","2021-12-31 04:27:41",68.109.61.30,"Mozilla/5.0 (Windows NT 10.0; Win64; x64) AppleWebKit/537.36 (KHTML, like Gecko) Chrome/96.0.4664.110 Safari/537.36",WebKit,Chrome,96.0.4664.110,Windows,10.0,ac0f2dffeffaa78d35a552e03d03f0a8
24,1,"""",test_procedure,stim_test,canvas-button-response,110,458731,0.0-11.0-0.0-1.23,3SD15I2WEBVYX2RZ7BNPTJHHA9P63F,AW5O1RK3W60FC,3S4AW7T80KJ4L3A3KV3CGRN8HPF4LY,8W4S4,8W4S4,3S4AW7T80KJ4L3A3KV3CGRN8HPF4LY,3S4AW7T80KJ4L3A3KV3CGRN8HPF4LY,338054,338054,1,0.03,"""",1589.9000000953674,1,catchStim8,0,Counter-clockwise,false,"""",0.3,120,0.001,"""","2021-12-31 04:27:41",68.109.61.30,"Mozilla/5.0 (Windows NT 10.0; Win64; x64) AppleWebKit/537.36 (KHTML, like Gecko) Chrome/96.0.4664.110 Safari/537.36",WebKit,Chrome,96.0.4664.110,Windows,10.0,ac0f2dffeffaa78d35a552e03d03f0a8
24,1,"""",test_procedure,confidence_rating,html-slider-response,111,460827,0.0-11.0-0.0-2.23,3SD15I2WEBVYX2RZ7BNPTJHHA9P63F,AW5O1RK3W60FC,3S4AW7T80KJ4L3A3KV3CGRN8HPF4LY,8W4S4,8W4S4,3S4AW7T80KJ4L3A3KV3CGRN8HPF4LY,3S4AW7T80KJ4L3A3KV3CGRN8HPF4LY,338054,338054,1,0.03,"""",2094.7999999523163,74,"<div id=""message-div""><p>How confident are you that your clockwise/counter-clockwise response just now was accurate? Please rate your confidence on the slider bar below.</p></div>","""","""","""",50,"""","""","""",74,"2021-12-31 04:27:41",68.109.61.30,"Mozilla/5.0 (Windows NT 10.0; Win64; x64) AppleWebKit/537.36 (KHTML, like Gecko) Chrome/96.0.4664.110 Safari/537.36",WebKit,Chrome,96.0.4664.110,Windows,10.0,ac0f2dffeffaa78d35a552e03d03f0a8
24,1,"""",test_procedure,rest_block,html-button-response,112,490027,0.0-11.0-0.0-3.23-0.23,3SD15I2WEBVYX2RZ7BNPTJHHA9P63F,AW5O1RK3W60FC,3S4AW7T80KJ4L3A3KV3CGRN8HPF4LY,8W4S4,8W4S4,3S4AW7T80KJ4L3A3KV3CGRN8HPF4LY,3S4AW7T80KJ4L3A3KV3CGRN8HPF4LY,338054,338054,1,0.03,"""",29196,0,"[""<p>You responded correctly on 66.67% of the trials in the previous section.</p><p>Time to take a break!</p><p>Once you're ready, press the \"Continue\" button to continue.</p>""]","""","""","""","""","""","""","""","""","2021-12-31 04:27:41",68.109.61.30,"Mozilla/5.0 (Windows NT 10.0; Win64; x64) AppleWebKit/537.36 (KHTML, like Gecko) Chrome/96.0.4664.110 Safari/537.36",WebKit,Chrome,96.0.4664.110,Windows,10.0,ac0f2dffeffaa78d35a552e03d03f0a8
24,1,"""",test_procedure,fixation,html-keyboard-response,113,490530,0.0-11.0-0.1-0.24,3SD15I2WEBVYX2RZ7BNPTJHHA9P63F,AW5O1RK3W60FC,3S4AW7T80KJ4L3A3KV3CGRN8HPF4LY,8W4S4,8W4S4,3S4AW7T80KJ4L3A3KV3CGRN8HPF4LY,3S4AW7T80KJ4L3A3KV3CGRN8HPF4LY,338054,338054,1,0.03,"""",null,null,"<div class = fixationbox><div class = fixation>+</div></div>","""","""","""","""","""","""","""","""","2021-12-31 04:27:41",68.109.61.30,"Mozilla/5.0 (Windows NT 10.0; Win64; x64) AppleWebKit/537.36 (KHTML, like Gecko) Chrome/96.0.4664.110 Safari/537.36",WebKit,Chrome,96.0.4664.110,Windows,10.0,ac0f2dffeffaa78d35a552e03d03f0a8
24,1,"""",test_procedure,stim_test,canvas-button-response,114,492147,0.0-11.0-0.1-1.24,3SD15I2WEBVYX2RZ7BNPTJHHA9P63F,AW5O1RK3W60FC,3S4AW7T80KJ4L3A3KV3CGRN8HPF4LY,8W4S4,8W4S4,3S4AW7T80KJ4L3A3KV3CGRN8HPF4LY,3S4AW7T80KJ4L3A3KV3CGRN8HPF4LY,338054,338054,1,0.03,"""",1560.0999999046326,1,stim2,0,Counter-clockwise,false,"""",0.01,120,"""","""","2021-12-31 04:27:41",68.109.61.30,"Mozilla/5.0 (Windows NT 10.0; Win64; x64) AppleWebKit/537.36 (KHTML, like Gecko) Chrome/96.0.4664.110 Safari/537.36",WebKit,Chrome,96.0.4664.110,Windows,10.0,ac0f2dffeffaa78d35a552e03d03f0a8
24,1,"""",test_procedure,confidence_rating,html-slider-response,115,494459,0.0-11.0-0.1-2.24,3SD15I2WEBVYX2RZ7BNPTJHHA9P63F,AW5O1RK3W60FC,3S4AW7T80KJ4L3A3KV3CGRN8HPF4LY,8W4S4,8W4S4,3S4AW7T80KJ4L3A3KV3CGRN8HPF4LY,3S4AW7T80KJ4L3A3KV3CGRN8HPF4LY,338054,338054,1,0.03,"""",2310.600000143051,62,"<div id=""message-div""><p>How confident are you that your clockwise/counter-clockwise response just now was accurate? Please rate your confidence on the slider bar below.</p></div>","""","""","""",50,"""","""","""",62,"2021-12-31 04:27:41",68.109.61.30,"Mozilla/5.0 (Windows NT 10.0; Win64; x64) AppleWebKit/537.36 (KHTML, like Gecko) Chrome/96.0.4664.110 Safari/537.36",WebKit,Chrome,96.0.4664.110,Windows,10.0,ac0f2dffeffaa78d35a552e03d03f0a8
24,1,"""",test_procedure,fixation,html-keyboard-response,116,494960,0.0-11.0-0.1-0.25,3SD15I2WEBVYX2RZ7BNPTJHHA9P63F,AW5O1RK3W60FC,3S4AW7T80KJ4L3A3KV3CGRN8HPF4LY,8W4S4,8W4S4,3S4AW7T80KJ4L3A3KV3CGRN8HPF4LY,3S4AW7T80KJ4L3A3KV3CGRN8HPF4LY,338054,338054,1,0.03,"""",null,null,"<div class = fixationbox><div class = fixation>+</div></div>","""","""","""","""","""","""","""","""","2021-12-31 04:27:41",68.109.61.30,"Mozilla/5.0 (Windows NT 10.0; Win64; x64) AppleWebKit/537.36 (KHTML, like Gecko) Chrome/96.0.4664.110 Safari/537.36",WebKit,Chrome,96.0.4664.110,Windows,10.0,ac0f2dffeffaa78d35a552e03d03f0a8
24,1,"""",test_procedure,stim_test,canvas-button-response,117,499547,0.0-11.0-0.1-1.25,3SD15I2WEBVYX2RZ7BNPTJHHA9P63F,AW5O1RK3W60FC,3S4AW7T80KJ4L3A3KV3CGRN8HPF4LY,8W4S4,8W4S4,3S4AW7T80KJ4L3A3KV3CGRN8HPF4LY,3S4AW7T80KJ4L3A3KV3CGRN8HPF4LY,338054,338054,1,0.03,"""",4534,1,catchStim3,1,Clockwise,true,"""",0.01,60,0.001,"""","2021-12-31 04:27:41",68.109.61.30,"Mozilla/5.0 (Windows NT 10.0; Win64; x64) AppleWebKit/537.36 (KHTML, like Gecko) Chrome/96.0.4664.110 Safari/537.36",WebKit,Chrome,96.0.4664.110,Windows,10.0,ac0f2dffeffaa78d35a552e03d03f0a8
24,1,"""",test_procedure,confidence_rating,html-slider-response,118,503411,0.0-11.0-0.1-2.25,3SD15I2WEBVYX2RZ7BNPTJHHA9P63F,AW5O1RK3W60FC,3S4AW7T80KJ4L3A3KV3CGRN8HPF4LY,8W4S4,8W4S4,3S4AW7T80KJ4L3A3KV3CGRN8HPF4LY,3S4AW7T80KJ4L3A3KV3CGRN8HPF4LY,338054,338054,1,0.03,"""",3860.5,31,"<div id=""message-div""><p>How confident are you that your clockwise/counter-clockwise response just now was accurate? Please rate your confidence on the slider bar below.</p></div>","""","""","""",50,"""","""","""",31,"2021-12-31 04:27:41",68.109.61.30,"Mozilla/5.0 (Windows NT 10.0; Win64; x64) AppleWebKit/537.36 (KHTML, like Gecko) Chrome/96.0.4664.110 Safari/537.36",WebKit,Chrome,96.0.4664.110,Windows,10.0,ac0f2dffeffaa78d35a552e03d03f0a8
24,1,"""",test_procedure,fixation,html-keyboard-response,119,503913,0.0-11.0-0.1-0.26,3SD15I2WEBVYX2RZ7BNPTJHHA9P63F,AW5O1RK3W60FC,3S4AW7T80KJ4L3A3KV3CGRN8HPF4LY,8W4S4,8W4S4,3S4AW7T80KJ4L3A3KV3CGRN8HPF4LY,3S4AW7T80KJ4L3A3KV3CGRN8HPF4LY,338054,338054,1,0.03,"""",null,null,"<div class = fixationbox><div class = fixation>+</div></div>","""","""","""","""","""","""","""","""","2021-12-31 04:27:41",68.109.61.30,"Mozilla/5.0 (Windows NT 10.0; Win64; x64) AppleWebKit/537.36 (KHTML, like Gecko) Chrome/96.0.4664.110 Safari/537.36",WebKit,Chrome,96.0.4664.110,Windows,10.0,ac0f2dffeffaa78d35a552e03d03f0a8
24,1,"""",test_procedure,stim_test,canvas-button-response,120,505275,0.0-11.0-0.1-1.26,3SD15I2WEBVYX2RZ7BNPTJHHA9P63F,AW5O1RK3W60FC,3S4AW7T80KJ4L3A3KV3CGRN8HPF4LY,8W4S4,8W4S4,3S4AW7T80KJ4L3A3KV3CGRN8HPF4LY,3S4AW7T80KJ4L3A3KV3CGRN8HPF4LY,338054,338054,1,0.03,"""",1308.5999999046326,1,stim1,1,Clockwise,true,"""",0.01,60,"""","""","2021-12-31 04:27:41",68.109.61.30,"Mozilla/5.0 (Windows NT 10.0; Win64; x64) AppleWebKit/537.36 (KHTML, like Gecko) Chrome/96.0.4664.110 Safari/537.36",WebKit,Chrome,96.0.4664.110,Windows,10.0,ac0f2dffeffaa78d35a552e03d03f0a8
24,1,"""",test_procedure,confidence_rating,html-slider-response,121,507172,0.0-11.0-0.1-2.26,3SD15I2WEBVYX2RZ7BNPTJHHA9P63F,AW5O1RK3W60FC,3S4AW7T80KJ4L3A3KV3CGRN8HPF4LY,8W4S4,8W4S4,3S4AW7T80KJ4L3A3KV3CGRN8HPF4LY,3S4AW7T80KJ4L3A3KV3CGRN8HPF4LY,338054,338054,1,0.03,"""",1895.3000001907349,68,"<div id=""message-div""><p>How confident are you that your clockwise/counter-clockwise response just now was accurate? Please rate your confidence on the slider bar below.</p></div>","""","""","""",50,"""","""","""",68,"2021-12-31 04:27:41",68.109.61.30,"Mozilla/5.0 (Windows NT 10.0; Win64; x64) AppleWebKit/537.36 (KHTML, like Gecko) Chrome/96.0.4664.110 Safari/537.36",WebKit,Chrome,96.0.4664.110,Windows,10.0,ac0f2dffeffaa78d35a552e03d03f0a8
24,1,"""",test_procedure,fixation,html-keyboard-response,122,507676,0.0-11.0-0.1-0.27,3SD15I2WEBVYX2RZ7BNPTJHHA9P63F,AW5O1RK3W60FC,3S4AW7T80KJ4L3A3KV3CGRN8HPF4LY,8W4S4,8W4S4,3S4AW7T80KJ4L3A3KV3CGRN8HPF4LY,3S4AW7T80KJ4L3A3KV3CGRN8HPF4LY,338054,338054,1,0.03,"""",null,null,"<div class = fixationbox><div class = fixation>+</div></div>","""","""","""","""","""","""","""","""","2021-12-31 04:27:41",68.109.61.30,"Mozilla/5.0 (Windows NT 10.0; Win64; x64) AppleWebKit/537.36 (KHTML, like Gecko) Chrome/96.0.4664.110 Safari/537.36",WebKit,Chrome,96.0.4664.110,Windows,10.0,ac0f2dffeffaa78d35a552e03d03f0a8
24,1,"""",test_procedure,stim_test,canvas-button-response,123,509875,0.0-11.0-0.1-1.27,3SD15I2WEBVYX2RZ7BNPTJHHA9P63F,AW5O1RK3W60FC,3S4AW7T80KJ4L3A3KV3CGRN8HPF4LY,8W4S4,8W4S4,3S4AW7T80KJ4L3A3KV3CGRN8HPF4LY,3S4AW7T80KJ4L3A3KV3CGRN8HPF4LY,338054,338054,1,0.03,"""",2153.7000000476837,1,catchStim7,1,Clockwise,true,"""",0.3,60,0.001,"""","2021-12-31 04:27:41",68.109.61.30,"Mozilla/5.0 (Windows NT 10.0; Win64; x64) AppleWebKit/537.36 (KHTML, like Gecko) Chrome/96.0.4664.110 Safari/537.36",WebKit,Chrome,96.0.4664.110,Windows,10.0,ac0f2dffeffaa78d35a552e03d03f0a8
24,1,"""",test_procedure,confidence_rating,html-slider-response,124,511891,0.0-11.0-0.1-2.27,3SD15I2WEBVYX2RZ7BNPTJHHA9P63F,AW5O1RK3W60FC,3S4AW7T80KJ4L3A3KV3CGRN8HPF4LY,8W4S4,8W4S4,3S4AW7T80KJ4L3A3KV3CGRN8HPF4LY,3S4AW7T80KJ4L3A3KV3CGRN8HPF4LY,338054,338054,1,0.03,"""",2014.5999999046326,76,"<div id=""message-div""><p>How confident are you that your clockwise/counter-clockwise response just now was accurate? Please rate your confidence on the slider bar below.</p></div>","""","""","""",50,"""","""","""",76,"2021-12-31 04:27:41",68.109.61.30,"Mozilla/5.0 (Windows NT 10.0; Win64; x64) AppleWebKit/537.36 (KHTML, like Gecko) Chrome/96.0.4664.110 Safari/537.36",WebKit,Chrome,96.0.4664.110,Windows,10.0,ac0f2dffeffaa78d35a552e03d03f0a8
24,1,"""",test_procedure,fixation,html-keyboard-response,125,512392,0.0-11.0-0.1-0.28,3SD15I2WEBVYX2RZ7BNPTJHHA9P63F,AW5O1RK3W60FC,3S4AW7T80KJ4L3A3KV3CGRN8HPF4LY,8W4S4,8W4S4,3S4AW7T80KJ4L3A3KV3CGRN8HPF4LY,3S4AW7T80KJ4L3A3KV3CGRN8HPF4LY,338054,338054,1,0.03,"""",null,null,"<div class = fixationbox><div class = fixation>+</div></div>","""","""","""","""","""","""","""","""","2021-12-31 04:27:41",68.109.61.30,"Mozilla/5.0 (Windows NT 10.0; Win64; x64) AppleWebKit/537.36 (KHTML, like Gecko) Chrome/96.0.4664.110 Safari/537.36",WebKit,Chrome,96.0.4664.110,Windows,10.0,ac0f2dffeffaa78d35a552e03d03f0a8
24,1,"""",test_procedure,stim_test,canvas-button-response,126,513915,0.0-11.0-0.1-1.28,3SD15I2WEBVYX2RZ7BNPTJHHA9P63F,AW5O1RK3W60FC,3S4AW7T80KJ4L3A3KV3CGRN8HPF4LY,8W4S4,8W4S4,3S4AW7T80KJ4L3A3KV3CGRN8HPF4LY,3S4AW7T80KJ4L3A3KV3CGRN8HPF4LY,338054,338054,1,0.03,"""",1469.7999999523163,0,catchStim2,0,Counter-clockwise,true,"""",0.01,120,0.6,"""","2021-12-31 04:27:41",68.109.61.30,"Mozilla/5.0 (Windows NT 10.0; Win64; x64) AppleWebKit/537.36 (KHTML, like Gecko) Chrome/96.0.4664.110 Safari/537.36",WebKit,Chrome,96.0.4664.110,Windows,10.0,ac0f2dffeffaa78d35a552e03d03f0a8
24,1,"""",test_procedure,confidence_rating,html-slider-response,127,516339,0.0-11.0-0.1-2.28,3SD15I2WEBVYX2RZ7BNPTJHHA9P63F,AW5O1RK3W60FC,3S4AW7T80KJ4L3A3KV3CGRN8HPF4LY,8W4S4,8W4S4,3S4AW7T80KJ4L3A3KV3CGRN8HPF4LY,3S4AW7T80KJ4L3A3KV3CGRN8HPF4LY,338054,338054,1,0.03,"""",2420.199999809265,100,"<div id=""message-div""><p>How confident are you that your clockwise/counter-clockwise response just now was accurate? Please rate your confidence on the slider bar below.</p></div>","""","""","""",50,"""","""","""",100,"2021-12-31 04:27:41",68.109.61.30,"Mozilla/5.0 (Windows NT 10.0; Win64; x64) AppleWebKit/537.36 (KHTML, like Gecko) Chrome/96.0.4664.110 Safari/537.36",WebKit,Chrome,96.0.4664.110,Windows,10.0,ac0f2dffeffaa78d35a552e03d03f0a8
24,1,"""",test_procedure,fixation,html-keyboard-response,128,516844,0.0-11.0-0.1-0.29,3SD15I2WEBVYX2RZ7BNPTJHHA9P63F,AW5O1RK3W60FC,3S4AW7T80KJ4L3A3KV3CGRN8HPF4LY,8W4S4,8W4S4,3S4AW7T80KJ4L3A3KV3CGRN8HPF4LY,3S4AW7T80KJ4L3A3KV3CGRN8HPF4LY,338054,338054,1,0.03,"""",null,null,"<div class = fixationbox><div class = fixation>+</div></div>","""","""","""","""","""","""","""","""","2021-12-31 04:27:41",68.109.61.30,"Mozilla/5.0 (Windows NT 10.0; Win64; x64) AppleWebKit/537.36 (KHTML, like Gecko) Chrome/96.0.4664.110 Safari/537.36",WebKit,Chrome,96.0.4664.110,Windows,10.0,ac0f2dffeffaa78d35a552e03d03f0a8
24,1,"""",test_procedure,stim_test,canvas-button-response,129,517859,0.0-11.0-0.1-1.29,3SD15I2WEBVYX2RZ7BNPTJHHA9P63F,AW5O1RK3W60FC,3S4AW7T80KJ4L3A3KV3CGRN8HPF4LY,8W4S4,8W4S4,3S4AW7T80KJ4L3A3KV3CGRN8HPF4LY,3S4AW7T80KJ4L3A3KV3CGRN8HPF4LY,338054,338054,1,0.03,"""",962.5,0,catchStim6,0,Counter-clockwise,true,"""",0.3,120,0.6,"""","2021-12-31 04:27:41",68.109.61.30,"Mozilla/5.0 (Windows NT 10.0; Win64; x64) AppleWebKit/537.36 (KHTML, like Gecko) Chrome/96.0.4664.110 Safari/537.36",WebKit,Chrome,96.0.4664.110,Windows,10.0,ac0f2dffeffaa78d35a552e03d03f0a8
24,1,"""",test_procedure,confidence_rating,html-slider-response,130,520100,0.0-11.0-0.1-2.29,3SD15I2WEBVYX2RZ7BNPTJHHA9P63F,AW5O1RK3W60FC,3S4AW7T80KJ4L3A3KV3CGRN8HPF4LY,8W4S4,8W4S4,3S4AW7T80KJ4L3A3KV3CGRN8HPF4LY,3S4AW7T80KJ4L3A3KV3CGRN8HPF4LY,338054,338054,1,0.03,"""",2239.100000143051,100,"<div id=""message-div""><p>How confident are you that your clockwise/counter-clockwise response just now was accurate? Please rate your confidence on the slider bar below.</p></div>","""","""","""",50,"""","""","""",100,"2021-12-31 04:27:41",68.109.61.30,"Mozilla/5.0 (Windows NT 10.0; Win64; x64) AppleWebKit/537.36 (KHTML, like Gecko) Chrome/96.0.4664.110 Safari/537.36",WebKit,Chrome,96.0.4664.110,Windows,10.0,ac0f2dffeffaa78d35a552e03d03f0a8
24,1,"""",test_procedure,fixation,html-keyboard-response,131,520601,0.0-11.0-0.1-0.30,3SD15I2WEBVYX2RZ7BNPTJHHA9P63F,AW5O1RK3W60FC,3S4AW7T80KJ4L3A3KV3CGRN8HPF4LY,8W4S4,8W4S4,3S4AW7T80KJ4L3A3KV3CGRN8HPF4LY,3S4AW7T80KJ4L3A3KV3CGRN8HPF4LY,338054,338054,1,0.03,"""",null,null,"<div class = fixationbox><div class = fixation>+</div></div>","""","""","""","""","""","""","""","""","2021-12-31 04:27:41",68.109.61.30,"Mozilla/5.0 (Windows NT 10.0; Win64; x64) AppleWebKit/537.36 (KHTML, like Gecko) Chrome/96.0.4664.110 Safari/537.36",WebKit,Chrome,96.0.4664.110,Windows,10.0,ac0f2dffeffaa78d35a552e03d03f0a8
24,1,"""",test_procedure,stim_test,canvas-button-response,132,523403,0.0-11.0-0.1-1.30,3SD15I2WEBVYX2RZ7BNPTJHHA9P63F,AW5O1RK3W60FC,3S4AW7T80KJ4L3A3KV3CGRN8HPF4LY,8W4S4,8W4S4,3S4AW7T80KJ4L3A3KV3CGRN8HPF4LY,3S4AW7T80KJ4L3A3KV3CGRN8HPF4LY,338054,338054,1,0.03,"""",2746.5,0,stim1,1,Clockwise,false,"""",0.01,60,"""","""","2021-12-31 04:27:41",68.109.61.30,"Mozilla/5.0 (Windows NT 10.0; Win64; x64) AppleWebKit/537.36 (KHTML, like Gecko) Chrome/96.0.4664.110 Safari/537.36",WebKit,Chrome,96.0.4664.110,Windows,10.0,ac0f2dffeffaa78d35a552e03d03f0a8
24,1,"""",test_procedure,confidence_rating,html-slider-response,133,526772,0.0-11.0-0.1-2.30,3SD15I2WEBVYX2RZ7BNPTJHHA9P63F,AW5O1RK3W60FC,3S4AW7T80KJ4L3A3KV3CGRN8HPF4LY,8W4S4,8W4S4,3S4AW7T80KJ4L3A3KV3CGRN8HPF4LY,3S4AW7T80KJ4L3A3KV3CGRN8HPF4LY,338054,338054,1,0.03,"""",3367,56,"<div id=""message-div""><p>How confident are you that your clockwise/counter-clockwise response just now was accurate? Please rate your confidence on the slider bar below.</p></div>","""","""","""",50,"""","""","""",56,"2021-12-31 04:27:41",68.109.61.30,"Mozilla/5.0 (Windows NT 10.0; Win64; x64) AppleWebKit/537.36 (KHTML, like Gecko) Chrome/96.0.4664.110 Safari/537.36",WebKit,Chrome,96.0.4664.110,Windows,10.0,ac0f2dffeffaa78d35a552e03d03f0a8
24,1,"""",test_procedure,fixation,html-keyboard-response,134,527274,0.0-11.0-0.1-0.31,3SD15I2WEBVYX2RZ7BNPTJHHA9P63F,AW5O1RK3W60FC,3S4AW7T80KJ4L3A3KV3CGRN8HPF4LY,8W4S4,8W4S4,3S4AW7T80KJ4L3A3KV3CGRN8HPF4LY,3S4AW7T80KJ4L3A3KV3CGRN8HPF4LY,338054,338054,1,0.03,"""",null,null,"<div class = fixationbox><div class = fixation>+</div></div>","""","""","""","""","""","""","""","""","2021-12-31 04:27:41",68.109.61.30,"Mozilla/5.0 (Windows NT 10.0; Win64; x64) AppleWebKit/537.36 (KHTML, like Gecko) Chrome/96.0.4664.110 Safari/537.36",WebKit,Chrome,96.0.4664.110,Windows,10.0,ac0f2dffeffaa78d35a552e03d03f0a8
24,1,"""",test_procedure,stim_test,canvas-button-response,135,529059,0.0-11.0-0.1-1.31,3SD15I2WEBVYX2RZ7BNPTJHHA9P63F,AW5O1RK3W60FC,3S4AW7T80KJ4L3A3KV3CGRN8HPF4LY,8W4S4,8W4S4,3S4AW7T80KJ4L3A3KV3CGRN8HPF4LY,3S4AW7T80KJ4L3A3KV3CGRN8HPF4LY,338054,338054,1,0.03,"""",1738.5,1,stim3,1,Clockwise,true,"""",0.3,60,"""","""","2021-12-31 04:27:41",68.109.61.30,"Mozilla/5.0 (Windows NT 10.0; Win64; x64) AppleWebKit/537.36 (KHTML, like Gecko) Chrome/96.0.4664.110 Safari/537.36",WebKit,Chrome,96.0.4664.110,Windows,10.0,ac0f2dffeffaa78d35a552e03d03f0a8
24,1,"""",test_procedure,confidence_rating,html-slider-response,136,531347,0.0-11.0-0.1-2.31,3SD15I2WEBVYX2RZ7BNPTJHHA9P63F,AW5O1RK3W60FC,3S4AW7T80KJ4L3A3KV3CGRN8HPF4LY,8W4S4,8W4S4,3S4AW7T80KJ4L3A3KV3CGRN8HPF4LY,3S4AW7T80KJ4L3A3KV3CGRN8HPF4LY,338054,338054,1,0.03,"""",2283.9000000953674,66,"<div id=""message-div""><p>How confident are you that your clockwise/counter-clockwise response just now was accurate? Please rate your confidence on the slider bar below.</p></div>","""","""","""",50,"""","""","""",66,"2021-12-31 04:27:41",68.109.61.30,"Mozilla/5.0 (Windows NT 10.0; Win64; x64) AppleWebKit/537.36 (KHTML, like Gecko) Chrome/96.0.4664.110 Safari/537.36",WebKit,Chrome,96.0.4664.110,Windows,10.0,ac0f2dffeffaa78d35a552e03d03f0a8
24,1,"""",test_procedure,fixation,html-keyboard-response,137,531848,0.0-11.0-0.1-0.32,3SD15I2WEBVYX2RZ7BNPTJHHA9P63F,AW5O1RK3W60FC,3S4AW7T80KJ4L3A3KV3CGRN8HPF4LY,8W4S4,8W4S4,3S4AW7T80KJ4L3A3KV3CGRN8HPF4LY,3S4AW7T80KJ4L3A3KV3CGRN8HPF4LY,338054,338054,1,0.03,"""",null,null,"<div class = fixationbox><div class = fixation>+</div></div>","""","""","""","""","""","""","""","""","2021-12-31 04:27:41",68.109.61.30,"Mozilla/5.0 (Windows NT 10.0; Win64; x64) AppleWebKit/537.36 (KHTML, like Gecko) Chrome/96.0.4664.110 Safari/537.36",WebKit,Chrome,96.0.4664.110,Windows,10.0,ac0f2dffeffaa78d35a552e03d03f0a8
24,1,"""",test_procedure,stim_test,canvas-button-response,138,533355,0.0-11.0-0.1-1.32,3SD15I2WEBVYX2RZ7BNPTJHHA9P63F,AW5O1RK3W60FC,3S4AW7T80KJ4L3A3KV3CGRN8HPF4LY,8W4S4,8W4S4,3S4AW7T80KJ4L3A3KV3CGRN8HPF4LY,3S4AW7T80KJ4L3A3KV3CGRN8HPF4LY,338054,338054,1,0.03,"""",1457.7000000476837,0,stim2,0,Counter-clockwise,true,"""",0.01,120,"""","""","2021-12-31 04:27:41",68.109.61.30,"Mozilla/5.0 (Windows NT 10.0; Win64; x64) AppleWebKit/537.36 (KHTML, like Gecko) Chrome/96.0.4664.110 Safari/537.36",WebKit,Chrome,96.0.4664.110,Windows,10.0,ac0f2dffeffaa78d35a552e03d03f0a8
24,1,"""",test_procedure,confidence_rating,html-slider-response,139,536732,0.0-11.0-0.1-2.32,3SD15I2WEBVYX2RZ7BNPTJHHA9P63F,AW5O1RK3W60FC,3S4AW7T80KJ4L3A3KV3CGRN8HPF4LY,8W4S4,8W4S4,3S4AW7T80KJ4L3A3KV3CGRN8HPF4LY,3S4AW7T80KJ4L3A3KV3CGRN8HPF4LY,338054,338054,1,0.03,"""",3375.2000000476837,61,"<div id=""message-div""><p>How confident are you that your clockwise/counter-clockwise response just now was accurate? Please rate your confidence on the slider bar below.</p></div>","""","""","""",50,"""","""","""",61,"2021-12-31 04:27:41",68.109.61.30,"Mozilla/5.0 (Windows NT 10.0; Win64; x64) AppleWebKit/537.36 (KHTML, like Gecko) Chrome/96.0.4664.110 Safari/537.36",WebKit,Chrome,96.0.4664.110,Windows,10.0,ac0f2dffeffaa78d35a552e03d03f0a8
24,1,"""",test_procedure,fixation,html-keyboard-response,140,537237,0.0-11.0-0.1-0.33,3SD15I2WEBVYX2RZ7BNPTJHHA9P63F,AW5O1RK3W60FC,3S4AW7T80KJ4L3A3KV3CGRN8HPF4LY,8W4S4,8W4S4,3S4AW7T80KJ4L3A3KV3CGRN8HPF4LY,3S4AW7T80KJ4L3A3KV3CGRN8HPF4LY,338054,338054,1,0.03,"""",null,null,"<div class = fixationbox><div class = fixation>+</div></div>","""","""","""","""","""","""","""","""","2021-12-31 04:27:41",68.109.61.30,"Mozilla/5.0 (Windows NT 10.0; Win64; x64) AppleWebKit/537.36 (KHTML, like Gecko) Chrome/96.0.4664.110 Safari/537.36",WebKit,Chrome,96.0.4664.110,Windows,10.0,ac0f2dffeffaa78d35a552e03d03f0a8
24,1,"""",test_procedure,stim_test,canvas-button-response,141,538812,0.0-11.0-0.1-1.33,3SD15I2WEBVYX2RZ7BNPTJHHA9P63F,AW5O1RK3W60FC,3S4AW7T80KJ4L3A3KV3CGRN8HPF4LY,8W4S4,8W4S4,3S4AW7T80KJ4L3A3KV3CGRN8HPF4LY,3S4AW7T80KJ4L3A3KV3CGRN8HPF4LY,338054,338054,1,0.03,"""",1521.5999999046326,1,stim1,1,Clockwise,true,"""",0.01,60,"""","""","2021-12-31 04:27:41",68.109.61.30,"Mozilla/5.0 (Windows NT 10.0; Win64; x64) AppleWebKit/537.36 (KHTML, like Gecko) Chrome/96.0.4664.110 Safari/537.36",WebKit,Chrome,96.0.4664.110,Windows,10.0,ac0f2dffeffaa78d35a552e03d03f0a8
24,1,"""",test_procedure,confidence_rating,html-slider-response,142,540604,0.0-11.0-0.1-2.33,3SD15I2WEBVYX2RZ7BNPTJHHA9P63F,AW5O1RK3W60FC,3S4AW7T80KJ4L3A3KV3CGRN8HPF4LY,8W4S4,8W4S4,3S4AW7T80KJ4L3A3KV3CGRN8HPF4LY,3S4AW7T80KJ4L3A3KV3CGRN8HPF4LY,338054,338054,1,0.03,"""",1791,71,"<div id=""message-div""><p>How confident are you that your clockwise/counter-clockwise response just now was accurate? Please rate your confidence on the slider bar below.</p></div>","""","""","""",50,"""","""","""",71,"2021-12-31 04:27:41",68.109.61.30,"Mozilla/5.0 (Windows NT 10.0; Win64; x64) AppleWebKit/537.36 (KHTML, like Gecko) Chrome/96.0.4664.110 Safari/537.36",WebKit,Chrome,96.0.4664.110,Windows,10.0,ac0f2dffeffaa78d35a552e03d03f0a8
24,1,"""",test_procedure,fixation,html-keyboard-response,143,541106,0.0-11.0-0.1-0.34,3SD15I2WEBVYX2RZ7BNPTJHHA9P63F,AW5O1RK3W60FC,3S4AW7T80KJ4L3A3KV3CGRN8HPF4LY,8W4S4,8W4S4,3S4AW7T80KJ4L3A3KV3CGRN8HPF4LY,3S4AW7T80KJ4L3A3KV3CGRN8HPF4LY,338054,338054,1,0.03,"""",null,null,"<div class = fixationbox><div class = fixation>+</div></div>","""","""","""","""","""","""","""","""","2021-12-31 04:27:41",68.109.61.30,"Mozilla/5.0 (Windows NT 10.0; Win64; x64) AppleWebKit/537.36 (KHTML, like Gecko) Chrome/96.0.4664.110 Safari/537.36",WebKit,Chrome,96.0.4664.110,Windows,10.0,ac0f2dffeffaa78d35a552e03d03f0a8
24,1,"""",test_procedure,stim_test,canvas-button-response,144,544012,0.0-11.0-0.1-1.34,3SD15I2WEBVYX2RZ7BNPTJHHA9P63F,AW5O1RK3W60FC,3S4AW7T80KJ4L3A3KV3CGRN8HPF4LY,8W4S4,8W4S4,3S4AW7T80KJ4L3A3KV3CGRN8HPF4LY,3S4AW7T80KJ4L3A3KV3CGRN8HPF4LY,338054,338054,1,0.03,"""",2851.899999856949,1,catchStim4,0,Counter-clockwise,false,"""",0.01,120,0.001,"""","2021-12-31 04:27:41",68.109.61.30,"Mozilla/5.0 (Windows NT 10.0; Win64; x64) AppleWebKit/537.36 (KHTML, like Gecko) Chrome/96.0.4664.110 Safari/537.36",WebKit,Chrome,96.0.4664.110,Windows,10.0,ac0f2dffeffaa78d35a552e03d03f0a8
24,1,"""",test_procedure,confidence_rating,html-slider-response,145,546459,0.0-11.0-0.1-2.34,3SD15I2WEBVYX2RZ7BNPTJHHA9P63F,AW5O1RK3W60FC,3S4AW7T80KJ4L3A3KV3CGRN8HPF4LY,8W4S4,8W4S4,3S4AW7T80KJ4L3A3KV3CGRN8HPF4LY,3S4AW7T80KJ4L3A3KV3CGRN8HPF4LY,338054,338054,1,0.03,"""",2443.0999999046326,70,"<div id=""message-div""><p>How confident are you that your clockwise/counter-clockwise response just now was accurate? Please rate your confidence on the slider bar below.</p></div>","""","""","""",50,"""","""","""",70,"2021-12-31 04:27:41",68.109.61.30,"Mozilla/5.0 (Windows NT 10.0; Win64; x64) AppleWebKit/537.36 (KHTML, like Gecko) Chrome/96.0.4664.110 Safari/537.36",WebKit,Chrome,96.0.4664.110,Windows,10.0,ac0f2dffeffaa78d35a552e03d03f0a8
24,1,"""",test_procedure,fixation,html-keyboard-response,146,546961,0.0-11.0-0.1-0.35,3SD15I2WEBVYX2RZ7BNPTJHHA9P63F,AW5O1RK3W60FC,3S4AW7T80KJ4L3A3KV3CGRN8HPF4LY,8W4S4,8W4S4,3S4AW7T80KJ4L3A3KV3CGRN8HPF4LY,3S4AW7T80KJ4L3A3KV3CGRN8HPF4LY,338054,338054,1,0.03,"""",null,null,"<div class = fixationbox><div class = fixation>+</div></div>","""","""","""","""","""","""","""","""","2021-12-31 04:27:41",68.109.61.30,"Mozilla/5.0 (Windows NT 10.0; Win64; x64) AppleWebKit/537.36 (KHTML, like Gecko) Chrome/96.0.4664.110 Safari/537.36",WebKit,Chrome,96.0.4664.110,Windows,10.0,ac0f2dffeffaa78d35a552e03d03f0a8
24,1,"""",test_procedure,stim_test,canvas-button-response,147,548571,0.0-11.0-0.1-1.35,3SD15I2WEBVYX2RZ7BNPTJHHA9P63F,AW5O1RK3W60FC,3S4AW7T80KJ4L3A3KV3CGRN8HPF4LY,8W4S4,8W4S4,3S4AW7T80KJ4L3A3KV3CGRN8HPF4LY,3S4AW7T80KJ4L3A3KV3CGRN8HPF4LY,338054,338054,1,0.03,"""",1566.2000000476837,1,stim4,0,Counter-clockwise,false,"""",0.3,120,"""","""","2021-12-31 04:27:41",68.109.61.30,"Mozilla/5.0 (Windows NT 10.0; Win64; x64) AppleWebKit/537.36 (KHTML, like Gecko) Chrome/96.0.4664.110 Safari/537.36",WebKit,Chrome,96.0.4664.110,Windows,10.0,ac0f2dffeffaa78d35a552e03d03f0a8
24,1,"""",test_procedure,confidence_rating,html-slider-response,148,553243,0.0-11.0-0.1-2.35,3SD15I2WEBVYX2RZ7BNPTJHHA9P63F,AW5O1RK3W60FC,3S4AW7T80KJ4L3A3KV3CGRN8HPF4LY,8W4S4,8W4S4,3S4AW7T80KJ4L3A3KV3CGRN8HPF4LY,3S4AW7T80KJ4L3A3KV3CGRN8HPF4LY,338054,338054,1,0.03,"""",4671.100000143051,77,"<div id=""message-div""><p>How confident are you that your clockwise/counter-clockwise response just now was accurate? Please rate your confidence on the slider bar below.</p></div>","""","""","""",50,"""","""","""",77,"2021-12-31 04:27:41",68.109.61.30,"Mozilla/5.0 (Windows NT 10.0; Win64; x64) AppleWebKit/537.36 (KHTML, like Gecko) Chrome/96.0.4664.110 Safari/537.36",WebKit,Chrome,96.0.4664.110,Windows,10.0,ac0f2dffeffaa78d35a552e03d03f0a8
24,1,"""",test_procedure,fixation,html-keyboard-response,149,553748,0.0-11.0-0.1-0.36,3SD15I2WEBVYX2RZ7BNPTJHHA9P63F,AW5O1RK3W60FC,3S4AW7T80KJ4L3A3KV3CGRN8HPF4LY,8W4S4,8W4S4,3S4AW7T80KJ4L3A3KV3CGRN8HPF4LY,3S4AW7T80KJ4L3A3KV3CGRN8HPF4LY,338054,338054,1,0.03,"""",null,null,"<div class = fixationbox><div class = fixation>+</div></div>","""","""","""","""","""","""","""","""","2021-12-31 04:27:41",68.109.61.30,"Mozilla/5.0 (Windows NT 10.0; Win64; x64) AppleWebKit/537.36 (KHTML, like Gecko) Chrome/96.0.4664.110 Safari/537.36",WebKit,Chrome,96.0.4664.110,Windows,10.0,ac0f2dffeffaa78d35a552e03d03f0a8
24,1,"""",test_procedure,stim_test,canvas-button-response,150,559468,0.0-11.0-0.1-1.36,3SD15I2WEBVYX2RZ7BNPTJHHA9P63F,AW5O1RK3W60FC,3S4AW7T80KJ4L3A3KV3CGRN8HPF4LY,8W4S4,8W4S4,3S4AW7T80KJ4L3A3KV3CGRN8HPF4LY,3S4AW7T80KJ4L3A3KV3CGRN8HPF4LY,338054,338054,1,0.03,"""",5671.699999809265,1,stim2,0,Counter-clockwise,false,"""",0.01,120,"""","""","2021-12-31 04:27:41",68.109.61.30,"Mozilla/5.0 (Windows NT 10.0; Win64; x64) AppleWebKit/537.36 (KHTML, like Gecko) Chrome/96.0.4664.110 Safari/537.36",WebKit,Chrome,96.0.4664.110,Windows,10.0,ac0f2dffeffaa78d35a552e03d03f0a8
24,1,"""",test_procedure,confidence_rating,html-slider-response,151,563347,0.0-11.0-0.1-2.36,3SD15I2WEBVYX2RZ7BNPTJHHA9P63F,AW5O1RK3W60FC,3S4AW7T80KJ4L3A3KV3CGRN8HPF4LY,8W4S4,8W4S4,3S4AW7T80KJ4L3A3KV3CGRN8HPF4LY,3S4AW7T80KJ4L3A3KV3CGRN8HPF4LY,338054,338054,1,0.03,"""",3878.0999999046326,64,"<div id=""message-div""><p>How confident are you that your clockwise/counter-clockwise response just now was accurate? Please rate your confidence on the slider bar below.</p></div>","""","""","""",50,"""","""","""",64,"2021-12-31 04:27:41",68.109.61.30,"Mozilla/5.0 (Windows NT 10.0; Win64; x64) AppleWebKit/537.36 (KHTML, like Gecko) Chrome/96.0.4664.110 Safari/537.36",WebKit,Chrome,96.0.4664.110,Windows,10.0,ac0f2dffeffaa78d35a552e03d03f0a8
24,1,"""",test_procedure,fixation,html-keyboard-response,152,563852,0.0-11.0-0.1-0.37,3SD15I2WEBVYX2RZ7BNPTJHHA9P63F,AW5O1RK3W60FC,3S4AW7T80KJ4L3A3KV3CGRN8HPF4LY,8W4S4,8W4S4,3S4AW7T80KJ4L3A3KV3CGRN8HPF4LY,3S4AW7T80KJ4L3A3KV3CGRN8HPF4LY,338054,338054,1,0.03,"""",null,null,"<div class = fixationbox><div class = fixation>+</div></div>","""","""","""","""","""","""","""","""","2021-12-31 04:27:41",68.109.61.30,"Mozilla/5.0 (Windows NT 10.0; Win64; x64) AppleWebKit/537.36 (KHTML, like Gecko) Chrome/96.0.4664.110 Safari/537.36",WebKit,Chrome,96.0.4664.110,Windows,10.0,ac0f2dffeffaa78d35a552e03d03f0a8
24,1,"""",test_procedure,stim_test,canvas-button-response,153,566108,0.0-11.0-0.1-1.37,3SD15I2WEBVYX2RZ7BNPTJHHA9P63F,AW5O1RK3W60FC,3S4AW7T80KJ4L3A3KV3CGRN8HPF4LY,8W4S4,8W4S4,3S4AW7T80KJ4L3A3KV3CGRN8HPF4LY,3S4AW7T80KJ4L3A3KV3CGRN8HPF4LY,338054,338054,1,0.03,"""",2197.5999999046326,1,stim1,1,Clockwise,true,"""",0.01,60,"""","""","2021-12-31 04:27:41",68.109.61.30,"Mozilla/5.0 (Windows NT 10.0; Win64; x64) AppleWebKit/537.36 (KHTML, like Gecko) Chrome/96.0.4664.110 Safari/537.36",WebKit,Chrome,96.0.4664.110,Windows,10.0,ac0f2dffeffaa78d35a552e03d03f0a8
24,1,"""",test_procedure,confidence_rating,html-slider-response,154,568507,0.0-11.0-0.1-2.37,3SD15I2WEBVYX2RZ7BNPTJHHA9P63F,AW5O1RK3W60FC,3S4AW7T80KJ4L3A3KV3CGRN8HPF4LY,8W4S4,8W4S4,3S4AW7T80KJ4L3A3KV3CGRN8HPF4LY,3S4AW7T80KJ4L3A3KV3CGRN8HPF4LY,338054,338054,1,0.03,"""",2398.5999999046326,53,"<div id=""message-div""><p>How confident are you that your clockwise/counter-clockwise response just now was accurate? Please rate your confidence on the slider bar below.</p></div>","""","""","""",50,"""","""","""",53,"2021-12-31 04:27:41",68.109.61.30,"Mozilla/5.0 (Windows NT 10.0; Win64; x64) AppleWebKit/537.36 (KHTML, like Gecko) Chrome/96.0.4664.110 Safari/537.36",WebKit,Chrome,96.0.4664.110,Windows,10.0,ac0f2dffeffaa78d35a552e03d03f0a8
24,1,"""",test_procedure,fixation,html-keyboard-response,155,569008,0.0-11.0-0.1-0.38,3SD15I2WEBVYX2RZ7BNPTJHHA9P63F,AW5O1RK3W60FC,3S4AW7T80KJ4L3A3KV3CGRN8HPF4LY,8W4S4,8W4S4,3S4AW7T80KJ4L3A3KV3CGRN8HPF4LY,3S4AW7T80KJ4L3A3KV3CGRN8HPF4LY,338054,338054,1,0.03,"""",null,null,"<div class = fixationbox><div class = fixation>+</div></div>","""","""","""","""","""","""","""","""","2021-12-31 04:27:41",68.109.61.30,"Mozilla/5.0 (Windows NT 10.0; Win64; x64) AppleWebKit/537.36 (KHTML, like Gecko) Chrome/96.0.4664.110 Safari/537.36",WebKit,Chrome,96.0.4664.110,Windows,10.0,ac0f2dffeffaa78d35a552e03d03f0a8
24,1,"""",test_procedure,stim_test,canvas-button-response,156,570723,0.0-11.0-0.1-1.38,3SD15I2WEBVYX2RZ7BNPTJHHA9P63F,AW5O1RK3W60FC,3S4AW7T80KJ4L3A3KV3CGRN8HPF4LY,8W4S4,8W4S4,3S4AW7T80KJ4L3A3KV3CGRN8HPF4LY,3S4AW7T80KJ4L3A3KV3CGRN8HPF4LY,338054,338054,1,0.03,"""",1669.0999999046326,1,stim4,0,Counter-clockwise,false,"""",0.3,120,"""","""","2021-12-31 04:27:41",68.109.61.30,"Mozilla/5.0 (Windows NT 10.0; Win64; x64) AppleWebKit/537.36 (KHTML, like Gecko) Chrome/96.0.4664.110 Safari/537.36",WebKit,Chrome,96.0.4664.110,Windows,10.0,ac0f2dffeffaa78d35a552e03d03f0a8
