run_id,condition,success,exp_stage,trial_id,trial_type,trial_index,time_elapsed,internal_node_id,hitId,workerId,assignmentId,a,tp_a,b,tp_b,c,tp_c,conditionmyown,cen_signal_contrast_stim,view_history,rt,response,stimulus,correct_response,correct_response_in_clockwise_or_counterclockwise,correct,slider_start,ctx_signal_contrast,cen_angle_in_degree,cen_signal_contrast_catchStim,confidence,recorded_at,ip,user_agent,device,browser,browser_version,platform,platform_version,source_code_version
23,2,true,pre-exp,fullscreen_starts,fullscreen,0,9848,0.0-0.0,3PKVGQTFJQLSZOM7OKJDU84QFXXYRA,A1YVMDRR9W1LZ1,39RP059MEQU8CKDXZMEEOI83RMJBMA,M0R94,M0R94,39RP059MEQU8CKDXZMEEOI83RMJBMA,39RP059MEQU8CKDXZMEEOI83RMJBMA,338054,338054,2,0.04,"""","""","""","""","""","""","""","""","""","""","""","""","2021-12-31 04:16:33",75.164.8.93,"Mozilla/5.0 (Windows NT 10.0; Win64; x64) AppleWebKit/537.36 (KHTML, like Gecko) Chrome/96.0.4664.110 Safari/537.36",WebKit,Chrome,96.0.4664.110,Windows,10.0,ac0f2dffeffaa78d35a552e03d03f0a8
23,2,"""",pre-exp,instructionspage1,instructions,1,12238,0.0-1.0-0.0,3PKVGQTFJQLSZOM7OKJDU84QFXXYRA,A1YVMDRR9W1LZ1,39RP059MEQU8CKDXZMEEOI83RMJBMA,M0R94,M0R94,39RP059MEQU8CKDXZMEEOI83RMJBMA,39RP059MEQU8CKDXZMEEOI83RMJBMA,338054,338054,2,0.04,"[{""page_index"":0,""viewing_time"":2387.2000000476837}]",2387.4000000953674,"""","""","""","""","""","""","""","""","""","""","2021-12-31 04:16:33",75.164.8.93,"Mozilla/5.0 (Windows NT 10.0; Win64; x64) AppleWebKit/537.36 (KHTML, like Gecko) Chrome/96.0.4664.110 Safari/537.36",WebKit,Chrome,96.0.4664.110,Windows,10.0,ac0f2dffeffaa78d35a552e03d03f0a8
23,2,"""",pre-exp,instructions_block2,canvas-button-response,2,54642,0.0-2.0-0.0-0.0,3PKVGQTFJQLSZOM7OKJDU84QFXXYRA,A1YVMDRR9W1LZ1,39RP059MEQU8CKDXZMEEOI83RMJBMA,M0R94,M0R94,39RP059MEQU8CKDXZMEEOI83RMJBMA,39RP059MEQU8CKDXZMEEOI83RMJBMA,338054,338054,2,0.04,"""",42342.200000047684,1,instructionStim1,1,Clockwise,true,"""","""","""","""","""","2021-12-31 04:16:33",75.164.8.93,"Mozilla/5.0 (Windows NT 10.0; Win64; x64) AppleWebKit/537.36 (KHTML, like Gecko) Chrome/96.0.4664.110 Safari/537.36",WebKit,Chrome,96.0.4664.110,Windows,10.0,ac0f2dffeffaa78d35a552e03d03f0a8
23,2,"""",pre-exp,instructions_block3,canvas-button-response,3,56972,0.0-3.0-0.0-0.0,3PKVGQTFJQLSZOM7OKJDU84QFXXYRA,A1YVMDRR9W1LZ1,39RP059MEQU8CKDXZMEEOI83RMJBMA,M0R94,M0R94,39RP059MEQU8CKDXZMEEOI83RMJBMA,39RP059MEQU8CKDXZMEEOI83RMJBMA,338054,338054,2,0.04,"""",2277.600000143051,0,instructionStim2,0,Counter-clockwise,true,"""","""","""","""","""","2021-12-31 04:16:33",75.164.8.93,"Mozilla/5.0 (Windows NT 10.0; Win64; x64) AppleWebKit/537.36 (KHTML, like Gecko) Chrome/96.0.4664.110 Safari/537.36",WebKit,Chrome,96.0.4664.110,Windows,10.0,ac0f2dffeffaa78d35a552e03d03f0a8
23,2,"""",pre-exp,instructions_block4,html-slider-response,4,125562,0.0-4.0,3PKVGQTFJQLSZOM7OKJDU84QFXXYRA,A1YVMDRR9W1LZ1,39RP059MEQU8CKDXZMEEOI83RMJBMA,M0R94,M0R94,39RP059MEQU8CKDXZMEEOI83RMJBMA,39RP059MEQU8CKDXZMEEOI83RMJBMA,338054,338054,2,0.04,"""",68588.89999985695,100,"<div id=""message-div""><p>After you have made your clockwise/counter-clockwise choice, <br>you will be asked to rate how confident you are that you were correct in your clockwise/counter-clockwise choice using a slide bar.<br>Please try to use the entire range of the slider bar.<br>For example, feel free to move the slider to the leftmost location if you are extremely uncertain about your choice, and the rightmost location if you are extremely certain.</p></div>","""","""","""",50,"""","""","""","""","2021-12-31 04:16:33",75.164.8.93,"Mozilla/5.0 (Windows NT 10.0; Win64; x64) AppleWebKit/537.36 (KHTML, like Gecko) Chrome/96.0.4664.110 Safari/537.36",WebKit,Chrome,96.0.4664.110,Windows,10.0,ac0f2dffeffaa78d35a552e03d03f0a8
23,2,"""",pre-exp,instructionspage5,instructions,5,131651,0.0-5.0-0.0,3PKVGQTFJQLSZOM7OKJDU84QFXXYRA,A1YVMDRR9W1LZ1,39RP059MEQU8CKDXZMEEOI83RMJBMA,M0R94,M0R94,39RP059MEQU8CKDXZMEEOI83RMJBMA,39RP059MEQU8CKDXZMEEOI83RMJBMA,338054,338054,2,0.04,"[{""page_index"":0,""viewing_time"":6087.200000047684}]",6087.400000095367,"""","""","""","""","""","""","""","""","""","""","2021-12-31 04:16:33",75.164.8.93,"Mozilla/5.0 (Windows NT 10.0; Win64; x64) AppleWebKit/537.36 (KHTML, like Gecko) Chrome/96.0.4664.110 Safari/537.36",WebKit,Chrome,96.0.4664.110,Windows,10.0,ac0f2dffeffaa78d35a552e03d03f0a8
23,2,"""",pre-exp,instructionspage6,instructions,6,133129,0.0-6.0-0.0,3PKVGQTFJQLSZOM7OKJDU84QFXXYRA,A1YVMDRR9W1LZ1,39RP059MEQU8CKDXZMEEOI83RMJBMA,M0R94,M0R94,39RP059MEQU8CKDXZMEEOI83RMJBMA,39RP059MEQU8CKDXZMEEOI83RMJBMA,338054,338054,2,0.04,"[{""page_index"":0,""viewing_time"":1477.1000001430511}]",1477.3000001907349,"""","""","""","""","""","""","""","""","""","""","2021-12-31 04:16:33",75.164.8.93,"Mozilla/5.0 (Windows NT 10.0; Win64; x64) AppleWebKit/537.36 (KHTML, like Gecko) Chrome/96.0.4664.110 Safari/537.36",WebKit,Chrome,96.0.4664.110,Windows,10.0,ac0f2dffeffaa78d35a552e03d03f0a8
23,2,"""",pre-exp,instructionspage7,instructions,7,138044,0.0-7.0-0.0,3PKVGQTFJQLSZOM7OKJDU84QFXXYRA,A1YVMDRR9W1LZ1,39RP059MEQU8CKDXZMEEOI83RMJBMA,M0R94,M0R94,39RP059MEQU8CKDXZMEEOI83RMJBMA,39RP059MEQU8CKDXZMEEOI83RMJBMA,338054,338054,2,0.04,"[{""page_index"":0,""viewing_time"":4913.699999809265}]",4913.899999856949,"""","""","""","""","""","""","""","""","""","""","2021-12-31 04:16:33",75.164.8.93,"Mozilla/5.0 (Windows NT 10.0; Win64; x64) AppleWebKit/537.36 (KHTML, like Gecko) Chrome/96.0.4664.110 Safari/537.36",WebKit,Chrome,96.0.4664.110,Windows,10.0,ac0f2dffeffaa78d35a552e03d03f0a8
23,2,"""",pre-exp,instructionspage8,instructions,8,139197,0.0-8.0-0.0,3PKVGQTFJQLSZOM7OKJDU84QFXXYRA,A1YVMDRR9W1LZ1,39RP059MEQU8CKDXZMEEOI83RMJBMA,M0R94,M0R94,39RP059MEQU8CKDXZMEEOI83RMJBMA,39RP059MEQU8CKDXZMEEOI83RMJBMA,338054,338054,2,0.04,"[{""page_index"":0,""viewing_time"":1152.2999999523163}]",1152.5,"""","""","""","""","""","""","""","""","""","""","2021-12-31 04:16:33",75.164.8.93,"Mozilla/5.0 (Windows NT 10.0; Win64; x64) AppleWebKit/537.36 (KHTML, like Gecko) Chrome/96.0.4664.110 Safari/537.36",WebKit,Chrome,96.0.4664.110,Windows,10.0,ac0f2dffeffaa78d35a552e03d03f0a8
23,2,"""",practice_procedure,fixation,html-keyboard-response,9,139700,0.0-9.0-0.0-0.0,3PKVGQTFJQLSZOM7OKJDU84QFXXYRA,A1YVMDRR9W1LZ1,39RP059MEQU8CKDXZMEEOI83RMJBMA,M0R94,M0R94,39RP059MEQU8CKDXZMEEOI83RMJBMA,39RP059MEQU8CKDXZMEEOI83RMJBMA,338054,338054,2,0.04,"""",null,null,"<div class = fixationbox><div class = fixation>+</div></div>","""","""","""","""","""","""","""","""","2021-12-31 04:16:33",75.164.8.93,"Mozilla/5.0 (Windows NT 10.0; Win64; x64) AppleWebKit/537.36 (KHTML, like Gecko) Chrome/96.0.4664.110 Safari/537.36",WebKit,Chrome,96.0.4664.110,Windows,10.0,ac0f2dffeffaa78d35a552e03d03f0a8
23,2,"""",practice_procedure,stim_practice,canvas-button-response,10,141380,0.0-9.0-0.0-1.0,3PKVGQTFJQLSZOM7OKJDU84QFXXYRA,A1YVMDRR9W1LZ1,39RP059MEQU8CKDXZMEEOI83RMJBMA,M0R94,M0R94,39RP059MEQU8CKDXZMEEOI83RMJBMA,39RP059MEQU8CKDXZMEEOI83RMJBMA,338054,338054,2,0.04,"""",1643,1,practiceStim3,1,Clockwise,true,"""",0.3,60,0.99,"""","2021-12-31 04:16:33",75.164.8.93,"Mozilla/5.0 (Windows NT 10.0; Win64; x64) AppleWebKit/537.36 (KHTML, like Gecko) Chrome/96.0.4664.110 Safari/537.36",WebKit,Chrome,96.0.4664.110,Windows,10.0,ac0f2dffeffaa78d35a552e03d03f0a8
23,2,"""",practice_procedure,confidence_rating,html-slider-response,11,144227,0.0-9.0-0.0-2.0,3PKVGQTFJQLSZOM7OKJDU84QFXXYRA,A1YVMDRR9W1LZ1,39RP059MEQU8CKDXZMEEOI83RMJBMA,M0R94,M0R94,39RP059MEQU8CKDXZMEEOI83RMJBMA,39RP059MEQU8CKDXZMEEOI83RMJBMA,338054,338054,2,0.04,"""",2846.100000143051,100,"<div id=""message-div""><p>How confident are you that your clockwise/counter-clockwise response just now was accurate? Please rate your confidence on the slider bar below.</p></div>","""","""","""",50,"""","""","""",100,"2021-12-31 04:16:33",75.164.8.93,"Mozilla/5.0 (Windows NT 10.0; Win64; x64) AppleWebKit/537.36 (KHTML, like Gecko) Chrome/96.0.4664.110 Safari/537.36",WebKit,Chrome,96.0.4664.110,Windows,10.0,ac0f2dffeffaa78d35a552e03d03f0a8
23,2,"""",practice_procedure,fixation,html-keyboard-response,12,144728,0.0-9.0-0.0-0.1,3PKVGQTFJQLSZOM7OKJDU84QFXXYRA,A1YVMDRR9W1LZ1,39RP059MEQU8CKDXZMEEOI83RMJBMA,M0R94,M0R94,39RP059MEQU8CKDXZMEEOI83RMJBMA,39RP059MEQU8CKDXZMEEOI83RMJBMA,338054,338054,2,0.04,"""",null,null,"<div class = fixationbox><div class = fixation>+</div></div>","""","""","""","""","""","""","""","""","2021-12-31 04:16:33",75.164.8.93,"Mozilla/5.0 (Windows NT 10.0; Win64; x64) AppleWebKit/537.36 (KHTML, like Gecko) Chrome/96.0.4664.110 Safari/537.36",WebKit,Chrome,96.0.4664.110,Windows,10.0,ac0f2dffeffaa78d35a552e03d03f0a8
23,2,"""",practice_procedure,stim_practice,canvas-button-response,13,145968,0.0-9.0-0.0-1.1,3PKVGQTFJQLSZOM7OKJDU84QFXXYRA,A1YVMDRR9W1LZ1,39RP059MEQU8CKDXZMEEOI83RMJBMA,M0R94,M0R94,39RP059MEQU8CKDXZMEEOI83RMJBMA,39RP059MEQU8CKDXZMEEOI83RMJBMA,338054,338054,2,0.04,"""",1212.2999999523163,1,practiceStim3,1,Clockwise,true,"""",0.3,60,0.99,"""","2021-12-31 04:16:33",75.164.8.93,"Mozilla/5.0 (Windows NT 10.0; Win64; x64) AppleWebKit/537.36 (KHTML, like Gecko) Chrome/96.0.4664.110 Safari/537.36",WebKit,Chrome,96.0.4664.110,Windows,10.0,ac0f2dffeffaa78d35a552e03d03f0a8
23,2,"""",practice_procedure,confidence_rating,html-slider-response,14,149141,0.0-9.0-0.0-2.1,3PKVGQTFJQLSZOM7OKJDU84QFXXYRA,A1YVMDRR9W1LZ1,39RP059MEQU8CKDXZMEEOI83RMJBMA,M0R94,M0R94,39RP059MEQU8CKDXZMEEOI83RMJBMA,39RP059MEQU8CKDXZMEEOI83RMJBMA,338054,338054,2,0.04,"""",3172,100,"<div id=""message-div""><p>How confident are you that your clockwise/counter-clockwise response just now was accurate? Please rate your confidence on the slider bar below.</p></div>","""","""","""",50,"""","""","""",100,"2021-12-31 04:16:33",75.164.8.93,"Mozilla/5.0 (Windows NT 10.0; Win64; x64) AppleWebKit/537.36 (KHTML, like Gecko) Chrome/96.0.4664.110 Safari/537.36",WebKit,Chrome,96.0.4664.110,Windows,10.0,ac0f2dffeffaa78d35a552e03d03f0a8
23,2,"""",practice_procedure,fixation,html-keyboard-response,15,149643,0.0-9.0-0.0-0.2,3PKVGQTFJQLSZOM7OKJDU84QFXXYRA,A1YVMDRR9W1LZ1,39RP059MEQU8CKDXZMEEOI83RMJBMA,M0R94,M0R94,39RP059MEQU8CKDXZMEEOI83RMJBMA,39RP059MEQU8CKDXZMEEOI83RMJBMA,338054,338054,2,0.04,"""",null,null,"<div class = fixationbox><div class = fixation>+</div></div>","""","""","""","""","""","""","""","""","2021-12-31 04:16:33",75.164.8.93,"Mozilla/5.0 (Windows NT 10.0; Win64; x64) AppleWebKit/537.36 (KHTML, like Gecko) Chrome/96.0.4664.110 Safari/537.36",WebKit,Chrome,96.0.4664.110,Windows,10.0,ac0f2dffeffaa78d35a552e03d03f0a8
23,2,"""",practice_procedure,stim_practice,canvas-button-response,16,151092,0.0-9.0-0.0-1.2,3PKVGQTFJQLSZOM7OKJDU84QFXXYRA,A1YVMDRR9W1LZ1,39RP059MEQU8CKDXZMEEOI83RMJBMA,M0R94,M0R94,39RP059MEQU8CKDXZMEEOI83RMJBMA,39RP059MEQU8CKDXZMEEOI83RMJBMA,338054,338054,2,0.04,"""",1423.5,1,practiceStim3,1,Clockwise,true,"""",0.3,60,0.99,"""","2021-12-31 04:16:33",75.164.8.93,"Mozilla/5.0 (Windows NT 10.0; Win64; x64) AppleWebKit/537.36 (KHTML, like Gecko) Chrome/96.0.4664.110 Safari/537.36",WebKit,Chrome,96.0.4664.110,Windows,10.0,ac0f2dffeffaa78d35a552e03d03f0a8
23,2,"""",practice_procedure,confidence_rating,html-slider-response,17,153348,0.0-9.0-0.0-2.2,3PKVGQTFJQLSZOM7OKJDU84QFXXYRA,A1YVMDRR9W1LZ1,39RP059MEQU8CKDXZMEEOI83RMJBMA,M0R94,M0R94,39RP059MEQU8CKDXZMEEOI83RMJBMA,39RP059MEQU8CKDXZMEEOI83RMJBMA,338054,338054,2,0.04,"""",2254.2999999523163,100,"<div id=""message-div""><p>How confident are you that your clockwise/counter-clockwise response just now was accurate? Please rate your confidence on the slider bar below.</p></div>","""","""","""",50,"""","""","""",100,"2021-12-31 04:16:33",75.164.8.93,"Mozilla/5.0 (Windows NT 10.0; Win64; x64) AppleWebKit/537.36 (KHTML, like Gecko) Chrome/96.0.4664.110 Safari/537.36",WebKit,Chrome,96.0.4664.110,Windows,10.0,ac0f2dffeffaa78d35a552e03d03f0a8
23,2,"""",practice_procedure,fixation,html-keyboard-response,18,153849,0.0-9.0-0.0-0.3,3PKVGQTFJQLSZOM7OKJDU84QFXXYRA,A1YVMDRR9W1LZ1,39RP059MEQU8CKDXZMEEOI83RMJBMA,M0R94,M0R94,39RP059MEQU8CKDXZMEEOI83RMJBMA,39RP059MEQU8CKDXZMEEOI83RMJBMA,338054,338054,2,0.04,"""",null,null,"<div class = fixationbox><div class = fixation>+</div></div>","""","""","""","""","""","""","""","""","2021-12-31 04:16:33",75.164.8.93,"Mozilla/5.0 (Windows NT 10.0; Win64; x64) AppleWebKit/537.36 (KHTML, like Gecko) Chrome/96.0.4664.110 Safari/537.36",WebKit,Chrome,96.0.4664.110,Windows,10.0,ac0f2dffeffaa78d35a552e03d03f0a8
23,2,"""",practice_procedure,stim_practice,canvas-button-response,19,155379,0.0-9.0-0.0-1.3,3PKVGQTFJQLSZOM7OKJDU84QFXXYRA,A1YVMDRR9W1LZ1,39RP059MEQU8CKDXZMEEOI83RMJBMA,M0R94,M0R94,39RP059MEQU8CKDXZMEEOI83RMJBMA,39RP059MEQU8CKDXZMEEOI83RMJBMA,338054,338054,2,0.04,"""",1505.0999999046326,0,practiceStim2,0,Counter-clockwise,true,"""",0.01,120,0.99,"""","2021-12-31 04:16:33",75.164.8.93,"Mozilla/5.0 (Windows NT 10.0; Win64; x64) AppleWebKit/537.36 (KHTML, like Gecko) Chrome/96.0.4664.110 Safari/537.36",WebKit,Chrome,96.0.4664.110,Windows,10.0,ac0f2dffeffaa78d35a552e03d03f0a8
23,2,"""",practice_procedure,confidence_rating,html-slider-response,20,160254,0.0-9.0-0.0-2.3,3PKVGQTFJQLSZOM7OKJDU84QFXXYRA,A1YVMDRR9W1LZ1,39RP059MEQU8CKDXZMEEOI83RMJBMA,M0R94,M0R94,39RP059MEQU8CKDXZMEEOI83RMJBMA,39RP059MEQU8CKDXZMEEOI83RMJBMA,338054,338054,2,0.04,"""",4873.799999952316,100,"<div id=""message-div""><p>How confident are you that your clockwise/counter-clockwise response just now was accurate? Please rate your confidence on the slider bar below.</p></div>","""","""","""",50,"""","""","""",100,"2021-12-31 04:16:33",75.164.8.93,"Mozilla/5.0 (Windows NT 10.0; Win64; x64) AppleWebKit/537.36 (KHTML, like Gecko) Chrome/96.0.4664.110 Safari/537.36",WebKit,Chrome,96.0.4664.110,Windows,10.0,ac0f2dffeffaa78d35a552e03d03f0a8
23,2,"""",practice_procedure,fixation,html-keyboard-response,21,160765,0.0-9.0-0.0-0.4,3PKVGQTFJQLSZOM7OKJDU84QFXXYRA,A1YVMDRR9W1LZ1,39RP059MEQU8CKDXZMEEOI83RMJBMA,M0R94,M0R94,39RP059MEQU8CKDXZMEEOI83RMJBMA,39RP059MEQU8CKDXZMEEOI83RMJBMA,338054,338054,2,0.04,"""",null,null,"<div class = fixationbox><div class = fixation>+</div></div>","""","""","""","""","""","""","""","""","2021-12-31 04:16:33",75.164.8.93,"Mozilla/5.0 (Windows NT 10.0; Win64; x64) AppleWebKit/537.36 (KHTML, like Gecko) Chrome/96.0.4664.110 Safari/537.36",WebKit,Chrome,96.0.4664.110,Windows,10.0,ac0f2dffeffaa78d35a552e03d03f0a8
23,2,"""",practice_procedure,stim_practice,canvas-button-response,22,162228,0.0-9.0-0.0-1.4,3PKVGQTFJQLSZOM7OKJDU84QFXXYRA,A1YVMDRR9W1LZ1,39RP059MEQU8CKDXZMEEOI83RMJBMA,M0R94,M0R94,39RP059MEQU8CKDXZMEEOI83RMJBMA,39RP059MEQU8CKDXZMEEOI83RMJBMA,338054,338054,2,0.04,"""",1438.1000001430511,1,practiceStim1,1,Clockwise,true,"""",0.01,60,0.99,"""","2021-12-31 04:16:33",75.164.8.93,"Mozilla/5.0 (Windows NT 10.0; Win64; x64) AppleWebKit/537.36 (KHTML, like Gecko) Chrome/96.0.4664.110 Safari/537.36",WebKit,Chrome,96.0.4664.110,Windows,10.0,ac0f2dffeffaa78d35a552e03d03f0a8
23,2,"""",practice_procedure,confidence_rating,html-slider-response,23,164329,0.0-9.0-0.0-2.4,3PKVGQTFJQLSZOM7OKJDU84QFXXYRA,A1YVMDRR9W1LZ1,39RP059MEQU8CKDXZMEEOI83RMJBMA,M0R94,M0R94,39RP059MEQU8CKDXZMEEOI83RMJBMA,39RP059MEQU8CKDXZMEEOI83RMJBMA,338054,338054,2,0.04,"""",2100.0999999046326,100,"<div id=""message-div""><p>How confident are you that your clockwise/counter-clockwise response just now was accurate? Please rate your confidence on the slider bar below.</p></div>","""","""","""",50,"""","""","""",100,"2021-12-31 04:16:33",75.164.8.93,"Mozilla/5.0 (Windows NT 10.0; Win64; x64) AppleWebKit/537.36 (KHTML, like Gecko) Chrome/96.0.4664.110 Safari/537.36",WebKit,Chrome,96.0.4664.110,Windows,10.0,ac0f2dffeffaa78d35a552e03d03f0a8
23,2,"""",practice_procedure,fixation,html-keyboard-response,24,164829,0.0-9.0-0.0-0.5,3PKVGQTFJQLSZOM7OKJDU84QFXXYRA,A1YVMDRR9W1LZ1,39RP059MEQU8CKDXZMEEOI83RMJBMA,M0R94,M0R94,39RP059MEQU8CKDXZMEEOI83RMJBMA,39RP059MEQU8CKDXZMEEOI83RMJBMA,338054,338054,2,0.04,"""",null,null,"<div class = fixationbox><div class = fixation>+</div></div>","""","""","""","""","""","""","""","""","2021-12-31 04:16:33",75.164.8.93,"Mozilla/5.0 (Windows NT 10.0; Win64; x64) AppleWebKit/537.36 (KHTML, like Gecko) Chrome/96.0.4664.110 Safari/537.36",WebKit,Chrome,96.0.4664.110,Windows,10.0,ac0f2dffeffaa78d35a552e03d03f0a8
23,2,"""",practice_procedure,stim_practice,canvas-button-response,25,166049,0.0-9.0-0.0-1.5,3PKVGQTFJQLSZOM7OKJDU84QFXXYRA,A1YVMDRR9W1LZ1,39RP059MEQU8CKDXZMEEOI83RMJBMA,M0R94,M0R94,39RP059MEQU8CKDXZMEEOI83RMJBMA,39RP059MEQU8CKDXZMEEOI83RMJBMA,338054,338054,2,0.04,"""",1194.4000000953674,0,practiceStim2,0,Counter-clockwise,true,"""",0.01,120,0.99,"""","2021-12-31 04:16:33",75.164.8.93,"Mozilla/5.0 (Windows NT 10.0; Win64; x64) AppleWebKit/537.36 (KHTML, like Gecko) Chrome/96.0.4664.110 Safari/537.36",WebKit,Chrome,96.0.4664.110,Windows,10.0,ac0f2dffeffaa78d35a552e03d03f0a8
23,2,"""",practice_procedure,confidence_rating,html-slider-response,26,168091,0.0-9.0-0.0-2.5,3PKVGQTFJQLSZOM7OKJDU84QFXXYRA,A1YVMDRR9W1LZ1,39RP059MEQU8CKDXZMEEOI83RMJBMA,M0R94,M0R94,39RP059MEQU8CKDXZMEEOI83RMJBMA,39RP059MEQU8CKDXZMEEOI83RMJBMA,338054,338054,2,0.04,"""",2040.0999999046326,100,"<div id=""message-div""><p>How confident are you that your clockwise/counter-clockwise response just now was accurate? Please rate your confidence on the slider bar below.</p></div>","""","""","""",50,"""","""","""",100,"2021-12-31 04:16:33",75.164.8.93,"Mozilla/5.0 (Windows NT 10.0; Win64; x64) AppleWebKit/537.36 (KHTML, like Gecko) Chrome/96.0.4664.110 Safari/537.36",WebKit,Chrome,96.0.4664.110,Windows,10.0,ac0f2dffeffaa78d35a552e03d03f0a8
23,2,"""",practice_procedure,fixation,html-keyboard-response,27,168591,0.0-9.0-0.0-0.6,3PKVGQTFJQLSZOM7OKJDU84QFXXYRA,A1YVMDRR9W1LZ1,39RP059MEQU8CKDXZMEEOI83RMJBMA,M0R94,M0R94,39RP059MEQU8CKDXZMEEOI83RMJBMA,39RP059MEQU8CKDXZMEEOI83RMJBMA,338054,338054,2,0.04,"""",null,null,"<div class = fixationbox><div class = fixation>+</div></div>","""","""","""","""","""","""","""","""","2021-12-31 04:16:33",75.164.8.93,"Mozilla/5.0 (Windows NT 10.0; Win64; x64) AppleWebKit/537.36 (KHTML, like Gecko) Chrome/96.0.4664.110 Safari/537.36",WebKit,Chrome,96.0.4664.110,Windows,10.0,ac0f2dffeffaa78d35a552e03d03f0a8
23,2,"""",practice_procedure,stim_practice,canvas-button-response,28,169755,0.0-9.0-0.0-1.6,3PKVGQTFJQLSZOM7OKJDU84QFXXYRA,A1YVMDRR9W1LZ1,39RP059MEQU8CKDXZMEEOI83RMJBMA,M0R94,M0R94,39RP059MEQU8CKDXZMEEOI83RMJBMA,39RP059MEQU8CKDXZMEEOI83RMJBMA,338054,338054,2,0.04,"""",1137.7999999523163,0,practiceStim4,0,Counter-clockwise,true,"""",0.3,120,0.99,"""","2021-12-31 04:16:33",75.164.8.93,"Mozilla/5.0 (Windows NT 10.0; Win64; x64) AppleWebKit/537.36 (KHTML, like Gecko) Chrome/96.0.4664.110 Safari/537.36",WebKit,Chrome,96.0.4664.110,Windows,10.0,ac0f2dffeffaa78d35a552e03d03f0a8
23,2,"""",practice_procedure,confidence_rating,html-slider-response,29,171677,0.0-9.0-0.0-2.6,3PKVGQTFJQLSZOM7OKJDU84QFXXYRA,A1YVMDRR9W1LZ1,39RP059MEQU8CKDXZMEEOI83RMJBMA,M0R94,M0R94,39RP059MEQU8CKDXZMEEOI83RMJBMA,39RP059MEQU8CKDXZMEEOI83RMJBMA,338054,338054,2,0.04,"""",1921.2000000476837,100,"<div id=""message-div""><p>How confident are you that your clockwise/counter-clockwise response just now was accurate? Please rate your confidence on the slider bar below.</p></div>","""","""","""",50,"""","""","""",100,"2021-12-31 04:16:33",75.164.8.93,"Mozilla/5.0 (Windows NT 10.0; Win64; x64) AppleWebKit/537.36 (KHTML, like Gecko) Chrome/96.0.4664.110 Safari/537.36",WebKit,Chrome,96.0.4664.110,Windows,10.0,ac0f2dffeffaa78d35a552e03d03f0a8
23,2,"""",practice_procedure,fixation,html-keyboard-response,30,172179,0.0-9.0-0.0-0.7,3PKVGQTFJQLSZOM7OKJDU84QFXXYRA,A1YVMDRR9W1LZ1,39RP059MEQU8CKDXZMEEOI83RMJBMA,M0R94,M0R94,39RP059MEQU8CKDXZMEEOI83RMJBMA,39RP059MEQU8CKDXZMEEOI83RMJBMA,338054,338054,2,0.04,"""",null,null,"<div class = fixationbox><div class = fixation>+</div></div>","""","""","""","""","""","""","""","""","2021-12-31 04:16:33",75.164.8.93,"Mozilla/5.0 (Windows NT 10.0; Win64; x64) AppleWebKit/537.36 (KHTML, like Gecko) Chrome/96.0.4664.110 Safari/537.36",WebKit,Chrome,96.0.4664.110,Windows,10.0,ac0f2dffeffaa78d35a552e03d03f0a8
23,2,"""",practice_procedure,stim_practice,canvas-button-response,31,173229,0.0-9.0-0.0-1.7,3PKVGQTFJQLSZOM7OKJDU84QFXXYRA,A1YVMDRR9W1LZ1,39RP059MEQU8CKDXZMEEOI83RMJBMA,M0R94,M0R94,39RP059MEQU8CKDXZMEEOI83RMJBMA,39RP059MEQU8CKDXZMEEOI83RMJBMA,338054,338054,2,0.04,"""",1023,0,practiceStim4,0,Counter-clockwise,true,"""",0.3,120,0.99,"""","2021-12-31 04:16:33",75.164.8.93,"Mozilla/5.0 (Windows NT 10.0; Win64; x64) AppleWebKit/537.36 (KHTML, like Gecko) Chrome/96.0.4664.110 Safari/537.36",WebKit,Chrome,96.0.4664.110,Windows,10.0,ac0f2dffeffaa78d35a552e03d03f0a8
23,2,"""",practice_procedure,confidence_rating,html-slider-response,32,175084,0.0-9.0-0.0-2.7,3PKVGQTFJQLSZOM7OKJDU84QFXXYRA,A1YVMDRR9W1LZ1,39RP059MEQU8CKDXZMEEOI83RMJBMA,M0R94,M0R94,39RP059MEQU8CKDXZMEEOI83RMJBMA,39RP059MEQU8CKDXZMEEOI83RMJBMA,338054,338054,2,0.04,"""",1853.9000000953674,100,"<div id=""message-div""><p>How confident are you that your clockwise/counter-clockwise response just now was accurate? Please rate your confidence on the slider bar below.</p></div>","""","""","""",50,"""","""","""",100,"2021-12-31 04:16:33",75.164.8.93,"Mozilla/5.0 (Windows NT 10.0; Win64; x64) AppleWebKit/537.36 (KHTML, like Gecko) Chrome/96.0.4664.110 Safari/537.36",WebKit,Chrome,96.0.4664.110,Windows,10.0,ac0f2dffeffaa78d35a552e03d03f0a8
23,2,"""",practice_procedure,fixation,html-keyboard-response,33,175585,0.0-9.0-0.0-0.8,3PKVGQTFJQLSZOM7OKJDU84QFXXYRA,A1YVMDRR9W1LZ1,39RP059MEQU8CKDXZMEEOI83RMJBMA,M0R94,M0R94,39RP059MEQU8CKDXZMEEOI83RMJBMA,39RP059MEQU8CKDXZMEEOI83RMJBMA,338054,338054,2,0.04,"""",null,null,"<div class = fixationbox><div class = fixation>+</div></div>","""","""","""","""","""","""","""","""","2021-12-31 04:16:33",75.164.8.93,"Mozilla/5.0 (Windows NT 10.0; Win64; x64) AppleWebKit/537.36 (KHTML, like Gecko) Chrome/96.0.4664.110 Safari/537.36",WebKit,Chrome,96.0.4664.110,Windows,10.0,ac0f2dffeffaa78d35a552e03d03f0a8
23,2,"""",practice_procedure,stim_practice,canvas-button-response,34,176883,0.0-9.0-0.0-1.8,3PKVGQTFJQLSZOM7OKJDU84QFXXYRA,A1YVMDRR9W1LZ1,39RP059MEQU8CKDXZMEEOI83RMJBMA,M0R94,M0R94,39RP059MEQU8CKDXZMEEOI83RMJBMA,39RP059MEQU8CKDXZMEEOI83RMJBMA,338054,338054,2,0.04,"""",1275.2000000476837,1,practiceStim1,1,Clockwise,true,"""",0.01,60,0.99,"""","2021-12-31 04:16:33",75.164.8.93,"Mozilla/5.0 (Windows NT 10.0; Win64; x64) AppleWebKit/537.36 (KHTML, like Gecko) Chrome/96.0.4664.110 Safari/537.36",WebKit,Chrome,96.0.4664.110,Windows,10.0,ac0f2dffeffaa78d35a552e03d03f0a8
23,2,"""",practice_procedure,confidence_rating,html-slider-response,35,183265,0.0-9.0-0.0-2.8,3PKVGQTFJQLSZOM7OKJDU84QFXXYRA,A1YVMDRR9W1LZ1,39RP059MEQU8CKDXZMEEOI83RMJBMA,M0R94,M0R94,39RP059MEQU8CKDXZMEEOI83RMJBMA,39RP059MEQU8CKDXZMEEOI83RMJBMA,338054,338054,2,0.04,"""",6380.900000095367,100,"<div id=""message-div""><p>How confident are you that your clockwise/counter-clockwise response just now was accurate? Please rate your confidence on the slider bar below.</p></div>","""","""","""",50,"""","""","""",100,"2021-12-31 04:16:33",75.164.8.93,"Mozilla/5.0 (Windows NT 10.0; Win64; x64) AppleWebKit/537.36 (KHTML, like Gecko) Chrome/96.0.4664.110 Safari/537.36",WebKit,Chrome,96.0.4664.110,Windows,10.0,ac0f2dffeffaa78d35a552e03d03f0a8
23,2,"""",practice_procedure,fixation,html-keyboard-response,36,183769,0.0-9.0-0.0-0.9,3PKVGQTFJQLSZOM7OKJDU84QFXXYRA,A1YVMDRR9W1LZ1,39RP059MEQU8CKDXZMEEOI83RMJBMA,M0R94,M0R94,39RP059MEQU8CKDXZMEEOI83RMJBMA,39RP059MEQU8CKDXZMEEOI83RMJBMA,338054,338054,2,0.04,"""",null,null,"<div class = fixationbox><div class = fixation>+</div></div>","""","""","""","""","""","""","""","""","2021-12-31 04:16:33",75.164.8.93,"Mozilla/5.0 (Windows NT 10.0; Win64; x64) AppleWebKit/537.36 (KHTML, like Gecko) Chrome/96.0.4664.110 Safari/537.36",WebKit,Chrome,96.0.4664.110,Windows,10.0,ac0f2dffeffaa78d35a552e03d03f0a8
23,2,"""",practice_procedure,stim_practice,canvas-button-response,37,184952,0.0-9.0-0.0-1.9,3PKVGQTFJQLSZOM7OKJDU84QFXXYRA,A1YVMDRR9W1LZ1,39RP059MEQU8CKDXZMEEOI83RMJBMA,M0R94,M0R94,39RP059MEQU8CKDXZMEEOI83RMJBMA,39RP059MEQU8CKDXZMEEOI83RMJBMA,338054,338054,2,0.04,"""",1154,0,practiceStim2,0,Counter-clockwise,true,"""",0.01,120,0.99,"""","2021-12-31 04:16:33",75.164.8.93,"Mozilla/5.0 (Windows NT 10.0; Win64; x64) AppleWebKit/537.36 (KHTML, like Gecko) Chrome/96.0.4664.110 Safari/537.36",WebKit,Chrome,96.0.4664.110,Windows,10.0,ac0f2dffeffaa78d35a552e03d03f0a8
23,2,"""",practice_procedure,confidence_rating,html-slider-response,38,187088,0.0-9.0-0.0-2.9,3PKVGQTFJQLSZOM7OKJDU84QFXXYRA,A1YVMDRR9W1LZ1,39RP059MEQU8CKDXZMEEOI83RMJBMA,M0R94,M0R94,39RP059MEQU8CKDXZMEEOI83RMJBMA,39RP059MEQU8CKDXZMEEOI83RMJBMA,338054,338054,2,0.04,"""",2135,100,"<div id=""message-div""><p>How confident are you that your clockwise/counter-clockwise response just now was accurate? Please rate your confidence on the slider bar below.</p></div>","""","""","""",50,"""","""","""",100,"2021-12-31 04:16:33",75.164.8.93,"Mozilla/5.0 (Windows NT 10.0; Win64; x64) AppleWebKit/537.36 (KHTML, like Gecko) Chrome/96.0.4664.110 Safari/537.36",WebKit,Chrome,96.0.4664.110,Windows,10.0,ac0f2dffeffaa78d35a552e03d03f0a8
23,2,"""",pre-test,test_instruction,instructions,39,298204,0.0-10.0,3PKVGQTFJQLSZOM7OKJDU84QFXXYRA,A1YVMDRR9W1LZ1,39RP059MEQU8CKDXZMEEOI83RMJBMA,M0R94,M0R94,39RP059MEQU8CKDXZMEEOI83RMJBMA,39RP059MEQU8CKDXZMEEOI83RMJBMA,338054,338054,2,0.04,"[{""page_index"":0,""viewing_time"":111115}]",111115.20000004768,"""","""","""","""","""","""","""","""","""","""","2021-12-31 04:16:33",75.164.8.93,"Mozilla/5.0 (Windows NT 10.0; Win64; x64) AppleWebKit/537.36 (KHTML, like Gecko) Chrome/96.0.4664.110 Safari/537.36",WebKit,Chrome,96.0.4664.110,Windows,10.0,ac0f2dffeffaa78d35a552e03d03f0a8
23,2,"""",test_procedure,fixation,html-keyboard-response,40,298706,0.0-11.0-0.0-0.0,3PKVGQTFJQLSZOM7OKJDU84QFXXYRA,A1YVMDRR9W1LZ1,39RP059MEQU8CKDXZMEEOI83RMJBMA,M0R94,M0R94,39RP059MEQU8CKDXZMEEOI83RMJBMA,39RP059MEQU8CKDXZMEEOI83RMJBMA,338054,338054,2,0.04,"""",null,null,"<div class = fixationbox><div class = fixation>+</div></div>","""","""","""","""","""","""","""","""","2021-12-31 04:16:33",75.164.8.93,"Mozilla/5.0 (Windows NT 10.0; Win64; x64) AppleWebKit/537.36 (KHTML, like Gecko) Chrome/96.0.4664.110 Safari/537.36",WebKit,Chrome,96.0.4664.110,Windows,10.0,ac0f2dffeffaa78d35a552e03d03f0a8
23,2,"""",test_procedure,stim_test,canvas-button-response,41,301703,0.0-11.0-0.0-1.0,3PKVGQTFJQLSZOM7OKJDU84QFXXYRA,A1YVMDRR9W1LZ1,39RP059MEQU8CKDXZMEEOI83RMJBMA,M0R94,M0R94,39RP059MEQU8CKDXZMEEOI83RMJBMA,39RP059MEQU8CKDXZMEEOI83RMJBMA,338054,338054,2,0.04,"""",2966.899999856949,1,stim1,1,Clockwise,true,"""",0.01,60,"""","""","2021-12-31 04:16:33",75.164.8.93,"Mozilla/5.0 (Windows NT 10.0; Win64; x64) AppleWebKit/537.36 (KHTML, like Gecko) Chrome/96.0.4664.110 Safari/537.36",WebKit,Chrome,96.0.4664.110,Windows,10.0,ac0f2dffeffaa78d35a552e03d03f0a8
23,2,"""",test_procedure,confidence_rating,html-slider-response,42,304388,0.0-11.0-0.0-2.0,3PKVGQTFJQLSZOM7OKJDU84QFXXYRA,A1YVMDRR9W1LZ1,39RP059MEQU8CKDXZMEEOI83RMJBMA,M0R94,M0R94,39RP059MEQU8CKDXZMEEOI83RMJBMA,39RP059MEQU8CKDXZMEEOI83RMJBMA,338054,338054,2,0.04,"""",2684,50,"<div id=""message-div""><p>How confident are you that your clockwise/counter-clockwise response just now was accurate? Please rate your confidence on the slider bar below.</p></div>","""","""","""",50,"""","""","""",50,"2021-12-31 04:16:33",75.164.8.93,"Mozilla/5.0 (Windows NT 10.0; Win64; x64) AppleWebKit/537.36 (KHTML, like Gecko) Chrome/96.0.4664.110 Safari/537.36",WebKit,Chrome,96.0.4664.110,Windows,10.0,ac0f2dffeffaa78d35a552e03d03f0a8
23,2,"""",test_procedure,fixation,html-keyboard-response,43,304891,0.0-11.0-0.0-0.1,3PKVGQTFJQLSZOM7OKJDU84QFXXYRA,A1YVMDRR9W1LZ1,39RP059MEQU8CKDXZMEEOI83RMJBMA,M0R94,M0R94,39RP059MEQU8CKDXZMEEOI83RMJBMA,39RP059MEQU8CKDXZMEEOI83RMJBMA,338054,338054,2,0.04,"""",null,null,"<div class = fixationbox><div class = fixation>+</div></div>","""","""","""","""","""","""","""","""","2021-12-31 04:16:33",75.164.8.93,"Mozilla/5.0 (Windows NT 10.0; Win64; x64) AppleWebKit/537.36 (KHTML, like Gecko) Chrome/96.0.4664.110 Safari/537.36",WebKit,Chrome,96.0.4664.110,Windows,10.0,ac0f2dffeffaa78d35a552e03d03f0a8
23,2,"""",test_procedure,stim_test,canvas-button-response,44,307378,0.0-11.0-0.0-1.1,3PKVGQTFJQLSZOM7OKJDU84QFXXYRA,A1YVMDRR9W1LZ1,39RP059MEQU8CKDXZMEEOI83RMJBMA,M0R94,M0R94,39RP059MEQU8CKDXZMEEOI83RMJBMA,39RP059MEQU8CKDXZMEEOI83RMJBMA,338054,338054,2,0.04,"""",2459.0999999046326,0,stim3,1,Clockwise,false,"""",0.3,60,"""","""","2021-12-31 04:16:33",75.164.8.93,"Mozilla/5.0 (Windows NT 10.0; Win64; x64) AppleWebKit/537.36 (KHTML, like Gecko) Chrome/96.0.4664.110 Safari/537.36",WebKit,Chrome,96.0.4664.110,Windows,10.0,ac0f2dffeffaa78d35a552e03d03f0a8
23,2,"""",test_procedure,confidence_rating,html-slider-response,45,309845,0.0-11.0-0.0-2.1,3PKVGQTFJQLSZOM7OKJDU84QFXXYRA,A1YVMDRR9W1LZ1,39RP059MEQU8CKDXZMEEOI83RMJBMA,M0R94,M0R94,39RP059MEQU8CKDXZMEEOI83RMJBMA,39RP059MEQU8CKDXZMEEOI83RMJBMA,338054,338054,2,0.04,"""",2466.0999999046326,86,"<div id=""message-div""><p>How confident are you that your clockwise/counter-clockwise response just now was accurate? Please rate your confidence on the slider bar below.</p></div>","""","""","""",50,"""","""","""",86,"2021-12-31 04:16:33",75.164.8.93,"Mozilla/5.0 (Windows NT 10.0; Win64; x64) AppleWebKit/537.36 (KHTML, like Gecko) Chrome/96.0.4664.110 Safari/537.36",WebKit,Chrome,96.0.4664.110,Windows,10.0,ac0f2dffeffaa78d35a552e03d03f0a8
23,2,"""",test_procedure,fixation,html-keyboard-response,46,310347,0.0-11.0-0.0-0.2,3PKVGQTFJQLSZOM7OKJDU84QFXXYRA,A1YVMDRR9W1LZ1,39RP059MEQU8CKDXZMEEOI83RMJBMA,M0R94,M0R94,39RP059MEQU8CKDXZMEEOI83RMJBMA,39RP059MEQU8CKDXZMEEOI83RMJBMA,338054,338054,2,0.04,"""",null,null,"<div class = fixationbox><div class = fixation>+</div></div>","""","""","""","""","""","""","""","""","2021-12-31 04:16:33",75.164.8.93,"Mozilla/5.0 (Windows NT 10.0; Win64; x64) AppleWebKit/537.36 (KHTML, like Gecko) Chrome/96.0.4664.110 Safari/537.36",WebKit,Chrome,96.0.4664.110,Windows,10.0,ac0f2dffeffaa78d35a552e03d03f0a8
23,2,"""",test_procedure,stim_test,canvas-button-response,47,312865,0.0-11.0-0.0-1.2,3PKVGQTFJQLSZOM7OKJDU84QFXXYRA,A1YVMDRR9W1LZ1,39RP059MEQU8CKDXZMEEOI83RMJBMA,M0R94,M0R94,39RP059MEQU8CKDXZMEEOI83RMJBMA,39RP059MEQU8CKDXZMEEOI83RMJBMA,338054,338054,2,0.04,"""",2490,0,stim3,1,Clockwise,false,"""",0.3,60,"""","""","2021-12-31 04:16:33",75.164.8.93,"Mozilla/5.0 (Windows NT 10.0; Win64; x64) AppleWebKit/537.36 (KHTML, like Gecko) Chrome/96.0.4664.110 Safari/537.36",WebKit,Chrome,96.0.4664.110,Windows,10.0,ac0f2dffeffaa78d35a552e03d03f0a8
23,2,"""",test_procedure,confidence_rating,html-slider-response,48,314704,0.0-11.0-0.0-2.2,3PKVGQTFJQLSZOM7OKJDU84QFXXYRA,A1YVMDRR9W1LZ1,39RP059MEQU8CKDXZMEEOI83RMJBMA,M0R94,M0R94,39RP059MEQU8CKDXZMEEOI83RMJBMA,39RP059MEQU8CKDXZMEEOI83RMJBMA,338054,338054,2,0.04,"""",1838.1999998092651,69,"<div id=""message-div""><p>How confident are you that your clockwise/counter-clockwise response just now was accurate? Please rate your confidence on the slider bar below.</p></div>","""","""","""",50,"""","""","""",69,"2021-12-31 04:16:33",75.164.8.93,"Mozilla/5.0 (Windows NT 10.0; Win64; x64) AppleWebKit/537.36 (KHTML, like Gecko) Chrome/96.0.4664.110 Safari/537.36",WebKit,Chrome,96.0.4664.110,Windows,10.0,ac0f2dffeffaa78d35a552e03d03f0a8
23,2,"""",test_procedure,fixation,html-keyboard-response,49,315205,0.0-11.0-0.0-0.3,3PKVGQTFJQLSZOM7OKJDU84QFXXYRA,A1YVMDRR9W1LZ1,39RP059MEQU8CKDXZMEEOI83RMJBMA,M0R94,M0R94,39RP059MEQU8CKDXZMEEOI83RMJBMA,39RP059MEQU8CKDXZMEEOI83RMJBMA,338054,338054,2,0.04,"""",null,null,"<div class = fixationbox><div class = fixation>+</div></div>","""","""","""","""","""","""","""","""","2021-12-31 04:16:33",75.164.8.93,"Mozilla/5.0 (Windows NT 10.0; Win64; x64) AppleWebKit/537.36 (KHTML, like Gecko) Chrome/96.0.4664.110 Safari/537.36",WebKit,Chrome,96.0.4664.110,Windows,10.0,ac0f2dffeffaa78d35a552e03d03f0a8
23,2,"""",test_procedure,stim_test,canvas-button-response,50,317211,0.0-11.0-0.0-1.3,3PKVGQTFJQLSZOM7OKJDU84QFXXYRA,A1YVMDRR9W1LZ1,39RP059MEQU8CKDXZMEEOI83RMJBMA,M0R94,M0R94,39RP059MEQU8CKDXZMEEOI83RMJBMA,39RP059MEQU8CKDXZMEEOI83RMJBMA,338054,338054,2,0.04,"""",1982.0999999046326,0,catchStim2,0,Counter-clockwise,true,"""",0.01,120,0.6,"""","2021-12-31 04:16:33",75.164.8.93,"Mozilla/5.0 (Windows NT 10.0; Win64; x64) AppleWebKit/537.36 (KHTML, like Gecko) Chrome/96.0.4664.110 Safari/537.36",WebKit,Chrome,96.0.4664.110,Windows,10.0,ac0f2dffeffaa78d35a552e03d03f0a8
23,2,"""",test_procedure,confidence_rating,html-slider-response,51,319420,0.0-11.0-0.0-2.3,3PKVGQTFJQLSZOM7OKJDU84QFXXYRA,A1YVMDRR9W1LZ1,39RP059MEQU8CKDXZMEEOI83RMJBMA,M0R94,M0R94,39RP059MEQU8CKDXZMEEOI83RMJBMA,39RP059MEQU8CKDXZMEEOI83RMJBMA,338054,338054,2,0.04,"""",2207.199999809265,100,"<div id=""message-div""><p>How confident are you that your clockwise/counter-clockwise response just now was accurate? Please rate your confidence on the slider bar below.</p></div>","""","""","""",50,"""","""","""",100,"2021-12-31 04:16:33",75.164.8.93,"Mozilla/5.0 (Windows NT 10.0; Win64; x64) AppleWebKit/537.36 (KHTML, like Gecko) Chrome/96.0.4664.110 Safari/537.36",WebKit,Chrome,96.0.4664.110,Windows,10.0,ac0f2dffeffaa78d35a552e03d03f0a8
23,2,"""",test_procedure,fixation,html-keyboard-response,52,319930,0.0-11.0-0.0-0.4,3PKVGQTFJQLSZOM7OKJDU84QFXXYRA,A1YVMDRR9W1LZ1,39RP059MEQU8CKDXZMEEOI83RMJBMA,M0R94,M0R94,39RP059MEQU8CKDXZMEEOI83RMJBMA,39RP059MEQU8CKDXZMEEOI83RMJBMA,338054,338054,2,0.04,"""",null,null,"<div class = fixationbox><div class = fixation>+</div></div>","""","""","""","""","""","""","""","""","2021-12-31 04:16:33",75.164.8.93,"Mozilla/5.0 (Windows NT 10.0; Win64; x64) AppleWebKit/537.36 (KHTML, like Gecko) Chrome/96.0.4664.110 Safari/537.36",WebKit,Chrome,96.0.4664.110,Windows,10.0,ac0f2dffeffaa78d35a552e03d03f0a8
23,2,"""",test_procedure,stim_test,canvas-button-response,53,321219,0.0-11.0-0.0-1.4,3PKVGQTFJQLSZOM7OKJDU84QFXXYRA,A1YVMDRR9W1LZ1,39RP059MEQU8CKDXZMEEOI83RMJBMA,M0R94,M0R94,39RP059MEQU8CKDXZMEEOI83RMJBMA,39RP059MEQU8CKDXZMEEOI83RMJBMA,338054,338054,2,0.04,"""",1263.5999999046326,0,catchStim6,0,Counter-clockwise,true,"""",0.3,120,0.6,"""","2021-12-31 04:16:33",75.164.8.93,"Mozilla/5.0 (Windows NT 10.0; Win64; x64) AppleWebKit/537.36 (KHTML, like Gecko) Chrome/96.0.4664.110 Safari/537.36",WebKit,Chrome,96.0.4664.110,Windows,10.0,ac0f2dffeffaa78d35a552e03d03f0a8
23,2,"""",test_procedure,confidence_rating,html-slider-response,54,323189,0.0-11.0-0.0-2.4,3PKVGQTFJQLSZOM7OKJDU84QFXXYRA,A1YVMDRR9W1LZ1,39RP059MEQU8CKDXZMEEOI83RMJBMA,M0R94,M0R94,39RP059MEQU8CKDXZMEEOI83RMJBMA,39RP059MEQU8CKDXZMEEOI83RMJBMA,338054,338054,2,0.04,"""",1969.0999999046326,100,"<div id=""message-div""><p>How confident are you that your clockwise/counter-clockwise response just now was accurate? Please rate your confidence on the slider bar below.</p></div>","""","""","""",50,"""","""","""",100,"2021-12-31 04:16:33",75.164.8.93,"Mozilla/5.0 (Windows NT 10.0; Win64; x64) AppleWebKit/537.36 (KHTML, like Gecko) Chrome/96.0.4664.110 Safari/537.36",WebKit,Chrome,96.0.4664.110,Windows,10.0,ac0f2dffeffaa78d35a552e03d03f0a8
23,2,"""",test_procedure,fixation,html-keyboard-response,55,323691,0.0-11.0-0.0-0.5,3PKVGQTFJQLSZOM7OKJDU84QFXXYRA,A1YVMDRR9W1LZ1,39RP059MEQU8CKDXZMEEOI83RMJBMA,M0R94,M0R94,39RP059MEQU8CKDXZMEEOI83RMJBMA,39RP059MEQU8CKDXZMEEOI83RMJBMA,338054,338054,2,0.04,"""",null,null,"<div class = fixationbox><div class = fixation>+</div></div>","""","""","""","""","""","""","""","""","2021-12-31 04:16:33",75.164.8.93,"Mozilla/5.0 (Windows NT 10.0; Win64; x64) AppleWebKit/537.36 (KHTML, like Gecko) Chrome/96.0.4664.110 Safari/537.36",WebKit,Chrome,96.0.4664.110,Windows,10.0,ac0f2dffeffaa78d35a552e03d03f0a8
23,2,"""",test_procedure,stim_test,canvas-button-response,56,325017,0.0-11.0-0.0-1.5,3PKVGQTFJQLSZOM7OKJDU84QFXXYRA,A1YVMDRR9W1LZ1,39RP059MEQU8CKDXZMEEOI83RMJBMA,M0R94,M0R94,39RP059MEQU8CKDXZMEEOI83RMJBMA,39RP059MEQU8CKDXZMEEOI83RMJBMA,338054,338054,2,0.04,"""",1301.5999999046326,0,stim2,0,Counter-clockwise,true,"""",0.01,120,"""","""","2021-12-31 04:16:33",75.164.8.93,"Mozilla/5.0 (Windows NT 10.0; Win64; x64) AppleWebKit/537.36 (KHTML, like Gecko) Chrome/96.0.4664.110 Safari/537.36",WebKit,Chrome,96.0.4664.110,Windows,10.0,ac0f2dffeffaa78d35a552e03d03f0a8
23,2,"""",test_procedure,confidence_rating,html-slider-response,57,327142,0.0-11.0-0.0-2.5,3PKVGQTFJQLSZOM7OKJDU84QFXXYRA,A1YVMDRR9W1LZ1,39RP059MEQU8CKDXZMEEOI83RMJBMA,M0R94,M0R94,39RP059MEQU8CKDXZMEEOI83RMJBMA,39RP059MEQU8CKDXZMEEOI83RMJBMA,338054,338054,2,0.04,"""",2124.0999999046326,100,"<div id=""message-div""><p>How confident are you that your clockwise/counter-clockwise response just now was accurate? Please rate your confidence on the slider bar below.</p></div>","""","""","""",50,"""","""","""",100,"2021-12-31 04:16:33",75.164.8.93,"Mozilla/5.0 (Windows NT 10.0; Win64; x64) AppleWebKit/537.36 (KHTML, like Gecko) Chrome/96.0.4664.110 Safari/537.36",WebKit,Chrome,96.0.4664.110,Windows,10.0,ac0f2dffeffaa78d35a552e03d03f0a8
23,2,"""",test_procedure,fixation,html-keyboard-response,58,327644,0.0-11.0-0.0-0.6,3PKVGQTFJQLSZOM7OKJDU84QFXXYRA,A1YVMDRR9W1LZ1,39RP059MEQU8CKDXZMEEOI83RMJBMA,M0R94,M0R94,39RP059MEQU8CKDXZMEEOI83RMJBMA,39RP059MEQU8CKDXZMEEOI83RMJBMA,338054,338054,2,0.04,"""",null,null,"<div class = fixationbox><div class = fixation>+</div></div>","""","""","""","""","""","""","""","""","2021-12-31 04:16:33",75.164.8.93,"Mozilla/5.0 (Windows NT 10.0; Win64; x64) AppleWebKit/537.36 (KHTML, like Gecko) Chrome/96.0.4664.110 Safari/537.36",WebKit,Chrome,96.0.4664.110,Windows,10.0,ac0f2dffeffaa78d35a552e03d03f0a8
23,2,"""",test_procedure,stim_test,canvas-button-response,59,329396,0.0-11.0-0.0-1.6,3PKVGQTFJQLSZOM7OKJDU84QFXXYRA,A1YVMDRR9W1LZ1,39RP059MEQU8CKDXZMEEOI83RMJBMA,M0R94,M0R94,39RP059MEQU8CKDXZMEEOI83RMJBMA,39RP059MEQU8CKDXZMEEOI83RMJBMA,338054,338054,2,0.04,"""",1726.4000000953674,0,catchStim8,0,Counter-clockwise,true,"""",0.3,120,0.001,"""","2021-12-31 04:16:33",75.164.8.93,"Mozilla/5.0 (Windows NT 10.0; Win64; x64) AppleWebKit/537.36 (KHTML, like Gecko) Chrome/96.0.4664.110 Safari/537.36",WebKit,Chrome,96.0.4664.110,Windows,10.0,ac0f2dffeffaa78d35a552e03d03f0a8
23,2,"""",test_procedure,confidence_rating,html-slider-response,60,331042,0.0-11.0-0.0-2.6,3PKVGQTFJQLSZOM7OKJDU84QFXXYRA,A1YVMDRR9W1LZ1,39RP059MEQU8CKDXZMEEOI83RMJBMA,M0R94,M0R94,39RP059MEQU8CKDXZMEEOI83RMJBMA,39RP059MEQU8CKDXZMEEOI83RMJBMA,338054,338054,2,0.04,"""",1644.0999999046326,62,"<div id=""message-div""><p>How confident are you that your clockwise/counter-clockwise response just now was accurate? Please rate your confidence on the slider bar below.</p></div>","""","""","""",50,"""","""","""",62,"2021-12-31 04:16:33",75.164.8.93,"Mozilla/5.0 (Windows NT 10.0; Win64; x64) AppleWebKit/537.36 (KHTML, like Gecko) Chrome/96.0.4664.110 Safari/537.36",WebKit,Chrome,96.0.4664.110,Windows,10.0,ac0f2dffeffaa78d35a552e03d03f0a8
23,2,"""",test_procedure,fixation,html-keyboard-response,61,331544,0.0-11.0-0.0-0.7,3PKVGQTFJQLSZOM7OKJDU84QFXXYRA,A1YVMDRR9W1LZ1,39RP059MEQU8CKDXZMEEOI83RMJBMA,M0R94,M0R94,39RP059MEQU8CKDXZMEEOI83RMJBMA,39RP059MEQU8CKDXZMEEOI83RMJBMA,338054,338054,2,0.04,"""",null,null,"<div class = fixationbox><div class = fixation>+</div></div>","""","""","""","""","""","""","""","""","2021-12-31 04:16:33",75.164.8.93,"Mozilla/5.0 (Windows NT 10.0; Win64; x64) AppleWebKit/537.36 (KHTML, like Gecko) Chrome/96.0.4664.110 Safari/537.36",WebKit,Chrome,96.0.4664.110,Windows,10.0,ac0f2dffeffaa78d35a552e03d03f0a8
23,2,"""",test_procedure,stim_test,canvas-button-response,62,332889,0.0-11.0-0.0-1.7,3PKVGQTFJQLSZOM7OKJDU84QFXXYRA,A1YVMDRR9W1LZ1,39RP059MEQU8CKDXZMEEOI83RMJBMA,M0R94,M0R94,39RP059MEQU8CKDXZMEEOI83RMJBMA,39RP059MEQU8CKDXZMEEOI83RMJBMA,338054,338054,2,0.04,"""",1320.4000000953674,0,stim4,0,Counter-clockwise,true,"""",0.3,120,"""","""","2021-12-31 04:16:33",75.164.8.93,"Mozilla/5.0 (Windows NT 10.0; Win64; x64) AppleWebKit/537.36 (KHTML, like Gecko) Chrome/96.0.4664.110 Safari/537.36",WebKit,Chrome,96.0.4664.110,Windows,10.0,ac0f2dffeffaa78d35a552e03d03f0a8
23,2,"""",test_procedure,confidence_rating,html-slider-response,63,334395,0.0-11.0-0.0-2.7,3PKVGQTFJQLSZOM7OKJDU84QFXXYRA,A1YVMDRR9W1LZ1,39RP059MEQU8CKDXZMEEOI83RMJBMA,M0R94,M0R94,39RP059MEQU8CKDXZMEEOI83RMJBMA,39RP059MEQU8CKDXZMEEOI83RMJBMA,338054,338054,2,0.04,"""",1505,82,"<div id=""message-div""><p>How confident are you that your clockwise/counter-clockwise response just now was accurate? Please rate your confidence on the slider bar below.</p></div>","""","""","""",50,"""","""","""",82,"2021-12-31 04:16:33",75.164.8.93,"Mozilla/5.0 (Windows NT 10.0; Win64; x64) AppleWebKit/537.36 (KHTML, like Gecko) Chrome/96.0.4664.110 Safari/537.36",WebKit,Chrome,96.0.4664.110,Windows,10.0,ac0f2dffeffaa78d35a552e03d03f0a8
23,2,"""",test_procedure,fixation,html-keyboard-response,64,334897,0.0-11.0-0.0-0.8,3PKVGQTFJQLSZOM7OKJDU84QFXXYRA,A1YVMDRR9W1LZ1,39RP059MEQU8CKDXZMEEOI83RMJBMA,M0R94,M0R94,39RP059MEQU8CKDXZMEEOI83RMJBMA,39RP059MEQU8CKDXZMEEOI83RMJBMA,338054,338054,2,0.04,"""",null,null,"<div class = fixationbox><div class = fixation>+</div></div>","""","""","""","""","""","""","""","""","2021-12-31 04:16:33",75.164.8.93,"Mozilla/5.0 (Windows NT 10.0; Win64; x64) AppleWebKit/537.36 (KHTML, like Gecko) Chrome/96.0.4664.110 Safari/537.36",WebKit,Chrome,96.0.4664.110,Windows,10.0,ac0f2dffeffaa78d35a552e03d03f0a8
23,2,"""",test_procedure,stim_test,canvas-button-response,65,336585,0.0-11.0-0.0-1.8,3PKVGQTFJQLSZOM7OKJDU84QFXXYRA,A1YVMDRR9W1LZ1,39RP059MEQU8CKDXZMEEOI83RMJBMA,M0R94,M0R94,39RP059MEQU8CKDXZMEEOI83RMJBMA,39RP059MEQU8CKDXZMEEOI83RMJBMA,338054,338054,2,0.04,"""",1662,0,stim1,1,Clockwise,false,"""",0.01,60,"""","""","2021-12-31 04:16:33",75.164.8.93,"Mozilla/5.0 (Windows NT 10.0; Win64; x64) AppleWebKit/537.36 (KHTML, like Gecko) Chrome/96.0.4664.110 Safari/537.36",WebKit,Chrome,96.0.4664.110,Windows,10.0,ac0f2dffeffaa78d35a552e03d03f0a8
23,2,"""",test_procedure,confidence_rating,html-slider-response,66,338175,0.0-11.0-0.0-2.8,3PKVGQTFJQLSZOM7OKJDU84QFXXYRA,A1YVMDRR9W1LZ1,39RP059MEQU8CKDXZMEEOI83RMJBMA,M0R94,M0R94,39RP059MEQU8CKDXZMEEOI83RMJBMA,39RP059MEQU8CKDXZMEEOI83RMJBMA,338054,338054,2,0.04,"""",1588.0999999046326,83,"<div id=""message-div""><p>How confident are you that your clockwise/counter-clockwise response just now was accurate? Please rate your confidence on the slider bar below.</p></div>","""","""","""",50,"""","""","""",83,"2021-12-31 04:16:33",75.164.8.93,"Mozilla/5.0 (Windows NT 10.0; Win64; x64) AppleWebKit/537.36 (KHTML, like Gecko) Chrome/96.0.4664.110 Safari/537.36",WebKit,Chrome,96.0.4664.110,Windows,10.0,ac0f2dffeffaa78d35a552e03d03f0a8
23,2,"""",test_procedure,fixation,html-keyboard-response,67,338676,0.0-11.0-0.0-0.9,3PKVGQTFJQLSZOM7OKJDU84QFXXYRA,A1YVMDRR9W1LZ1,39RP059MEQU8CKDXZMEEOI83RMJBMA,M0R94,M0R94,39RP059MEQU8CKDXZMEEOI83RMJBMA,39RP059MEQU8CKDXZMEEOI83RMJBMA,338054,338054,2,0.04,"""",null,null,"<div class = fixationbox><div class = fixation>+</div></div>","""","""","""","""","""","""","""","""","2021-12-31 04:16:33",75.164.8.93,"Mozilla/5.0 (Windows NT 10.0; Win64; x64) AppleWebKit/537.36 (KHTML, like Gecko) Chrome/96.0.4664.110 Safari/537.36",WebKit,Chrome,96.0.4664.110,Windows,10.0,ac0f2dffeffaa78d35a552e03d03f0a8
23,2,"""",test_procedure,stim_test,canvas-button-response,68,340349,0.0-11.0-0.0-1.9,3PKVGQTFJQLSZOM7OKJDU84QFXXYRA,A1YVMDRR9W1LZ1,39RP059MEQU8CKDXZMEEOI83RMJBMA,M0R94,M0R94,39RP059MEQU8CKDXZMEEOI83RMJBMA,39RP059MEQU8CKDXZMEEOI83RMJBMA,338054,338054,2,0.04,"""",1648.0999999046326,0,stim4,0,Counter-clockwise,true,"""",0.3,120,"""","""","2021-12-31 04:16:33",75.164.8.93,"Mozilla/5.0 (Windows NT 10.0; Win64; x64) AppleWebKit/537.36 (KHTML, like Gecko) Chrome/96.0.4664.110 Safari/537.36",WebKit,Chrome,96.0.4664.110,Windows,10.0,ac0f2dffeffaa78d35a552e03d03f0a8
23,2,"""",test_procedure,confidence_rating,html-slider-response,69,341875,0.0-11.0-0.0-2.9,3PKVGQTFJQLSZOM7OKJDU84QFXXYRA,A1YVMDRR9W1LZ1,39RP059MEQU8CKDXZMEEOI83RMJBMA,M0R94,M0R94,39RP059MEQU8CKDXZMEEOI83RMJBMA,39RP059MEQU8CKDXZMEEOI83RMJBMA,338054,338054,2,0.04,"""",1525,67,"<div id=""message-div""><p>How confident are you that your clockwise/counter-clockwise response just now was accurate? Please rate your confidence on the slider bar below.</p></div>","""","""","""",50,"""","""","""",67,"2021-12-31 04:16:33",75.164.8.93,"Mozilla/5.0 (Windows NT 10.0; Win64; x64) AppleWebKit/537.36 (KHTML, like Gecko) Chrome/96.0.4664.110 Safari/537.36",WebKit,Chrome,96.0.4664.110,Windows,10.0,ac0f2dffeffaa78d35a552e03d03f0a8
23,2,"""",test_procedure,fixation,html-keyboard-response,70,342377,0.0-11.0-0.0-0.10,3PKVGQTFJQLSZOM7OKJDU84QFXXYRA,A1YVMDRR9W1LZ1,39RP059MEQU8CKDXZMEEOI83RMJBMA,M0R94,M0R94,39RP059MEQU8CKDXZMEEOI83RMJBMA,39RP059MEQU8CKDXZMEEOI83RMJBMA,338054,338054,2,0.04,"""",null,null,"<div class = fixationbox><div class = fixation>+</div></div>","""","""","""","""","""","""","""","""","2021-12-31 04:16:33",75.164.8.93,"Mozilla/5.0 (Windows NT 10.0; Win64; x64) AppleWebKit/537.36 (KHTML, like Gecko) Chrome/96.0.4664.110 Safari/537.36",WebKit,Chrome,96.0.4664.110,Windows,10.0,ac0f2dffeffaa78d35a552e03d03f0a8
23,2,"""",test_procedure,stim_test,canvas-button-response,71,343993,0.0-11.0-0.0-1.10,3PKVGQTFJQLSZOM7OKJDU84QFXXYRA,A1YVMDRR9W1LZ1,39RP059MEQU8CKDXZMEEOI83RMJBMA,M0R94,M0R94,39RP059MEQU8CKDXZMEEOI83RMJBMA,39RP059MEQU8CKDXZMEEOI83RMJBMA,338054,338054,2,0.04,"""",1591.2000000476837,0,stim4,0,Counter-clockwise,true,"""",0.3,120,"""","""","2021-12-31 04:16:33",75.164.8.93,"Mozilla/5.0 (Windows NT 10.0; Win64; x64) AppleWebKit/537.36 (KHTML, like Gecko) Chrome/96.0.4664.110 Safari/537.36",WebKit,Chrome,96.0.4664.110,Windows,10.0,ac0f2dffeffaa78d35a552e03d03f0a8
23,2,"""",test_procedure,confidence_rating,html-slider-response,72,345388,0.0-11.0-0.0-2.10,3PKVGQTFJQLSZOM7OKJDU84QFXXYRA,A1YVMDRR9W1LZ1,39RP059MEQU8CKDXZMEEOI83RMJBMA,M0R94,M0R94,39RP059MEQU8CKDXZMEEOI83RMJBMA,39RP059MEQU8CKDXZMEEOI83RMJBMA,338054,338054,2,0.04,"""",1394.1000001430511,72,"<div id=""message-div""><p>How confident are you that your clockwise/counter-clockwise response just now was accurate? Please rate your confidence on the slider bar below.</p></div>","""","""","""",50,"""","""","""",72,"2021-12-31 04:16:33",75.164.8.93,"Mozilla/5.0 (Windows NT 10.0; Win64; x64) AppleWebKit/537.36 (KHTML, like Gecko) Chrome/96.0.4664.110 Safari/537.36",WebKit,Chrome,96.0.4664.110,Windows,10.0,ac0f2dffeffaa78d35a552e03d03f0a8
23,2,"""",test_procedure,fixation,html-keyboard-response,73,345890,0.0-11.0-0.0-0.11,3PKVGQTFJQLSZOM7OKJDU84QFXXYRA,A1YVMDRR9W1LZ1,39RP059MEQU8CKDXZMEEOI83RMJBMA,M0R94,M0R94,39RP059MEQU8CKDXZMEEOI83RMJBMA,39RP059MEQU8CKDXZMEEOI83RMJBMA,338054,338054,2,0.04,"""",null,null,"<div class = fixationbox><div class = fixation>+</div></div>","""","""","""","""","""","""","""","""","2021-12-31 04:16:33",75.164.8.93,"Mozilla/5.0 (Windows NT 10.0; Win64; x64) AppleWebKit/537.36 (KHTML, like Gecko) Chrome/96.0.4664.110 Safari/537.36",WebKit,Chrome,96.0.4664.110,Windows,10.0,ac0f2dffeffaa78d35a552e03d03f0a8
23,2,"""",test_procedure,stim_test,canvas-button-response,74,347487,0.0-11.0-0.0-1.11,3PKVGQTFJQLSZOM7OKJDU84QFXXYRA,A1YVMDRR9W1LZ1,39RP059MEQU8CKDXZMEEOI83RMJBMA,M0R94,M0R94,39RP059MEQU8CKDXZMEEOI83RMJBMA,39RP059MEQU8CKDXZMEEOI83RMJBMA,338054,338054,2,0.04,"""",1572.9000000953674,0,catchStim7,1,Clockwise,false,"""",0.3,60,0.001,"""","2021-12-31 04:16:33",75.164.8.93,"Mozilla/5.0 (Windows NT 10.0; Win64; x64) AppleWebKit/537.36 (KHTML, like Gecko) Chrome/96.0.4664.110 Safari/537.36",WebKit,Chrome,96.0.4664.110,Windows,10.0,ac0f2dffeffaa78d35a552e03d03f0a8
23,2,"""",test_procedure,confidence_rating,html-slider-response,75,349122,0.0-11.0-0.0-2.11,3PKVGQTFJQLSZOM7OKJDU84QFXXYRA,A1YVMDRR9W1LZ1,39RP059MEQU8CKDXZMEEOI83RMJBMA,M0R94,M0R94,39RP059MEQU8CKDXZMEEOI83RMJBMA,39RP059MEQU8CKDXZMEEOI83RMJBMA,338054,338054,2,0.04,"""",1634.2999999523163,77,"<div id=""message-div""><p>How confident are you that your clockwise/counter-clockwise response just now was accurate? Please rate your confidence on the slider bar below.</p></div>","""","""","""",50,"""","""","""",77,"2021-12-31 04:16:33",75.164.8.93,"Mozilla/5.0 (Windows NT 10.0; Win64; x64) AppleWebKit/537.36 (KHTML, like Gecko) Chrome/96.0.4664.110 Safari/537.36",WebKit,Chrome,96.0.4664.110,Windows,10.0,ac0f2dffeffaa78d35a552e03d03f0a8
23,2,"""",test_procedure,fixation,html-keyboard-response,76,349625,0.0-11.0-0.0-0.12,3PKVGQTFJQLSZOM7OKJDU84QFXXYRA,A1YVMDRR9W1LZ1,39RP059MEQU8CKDXZMEEOI83RMJBMA,M0R94,M0R94,39RP059MEQU8CKDXZMEEOI83RMJBMA,39RP059MEQU8CKDXZMEEOI83RMJBMA,338054,338054,2,0.04,"""",null,null,"<div class = fixationbox><div class = fixation>+</div></div>","""","""","""","""","""","""","""","""","2021-12-31 04:16:33",75.164.8.93,"Mozilla/5.0 (Windows NT 10.0; Win64; x64) AppleWebKit/537.36 (KHTML, like Gecko) Chrome/96.0.4664.110 Safari/537.36",WebKit,Chrome,96.0.4664.110,Windows,10.0,ac0f2dffeffaa78d35a552e03d03f0a8
23,2,"""",test_procedure,stim_test,canvas-button-response,77,351573,0.0-11.0-0.0-1.12,3PKVGQTFJQLSZOM7OKJDU84QFXXYRA,A1YVMDRR9W1LZ1,39RP059MEQU8CKDXZMEEOI83RMJBMA,M0R94,M0R94,39RP059MEQU8CKDXZMEEOI83RMJBMA,39RP059MEQU8CKDXZMEEOI83RMJBMA,338054,338054,2,0.04,"""",1924.2999999523163,0,stim2,0,Counter-clockwise,true,"""",0.01,120,"""","""","2021-12-31 04:16:33",75.164.8.93,"Mozilla/5.0 (Windows NT 10.0; Win64; x64) AppleWebKit/537.36 (KHTML, like Gecko) Chrome/96.0.4664.110 Safari/537.36",WebKit,Chrome,96.0.4664.110,Windows,10.0,ac0f2dffeffaa78d35a552e03d03f0a8
23,2,"""",test_procedure,confidence_rating,html-slider-response,78,353037,0.0-11.0-0.0-2.12,3PKVGQTFJQLSZOM7OKJDU84QFXXYRA,A1YVMDRR9W1LZ1,39RP059MEQU8CKDXZMEEOI83RMJBMA,M0R94,M0R94,39RP059MEQU8CKDXZMEEOI83RMJBMA,39RP059MEQU8CKDXZMEEOI83RMJBMA,338054,338054,2,0.04,"""",1463.0999999046326,47,"<div id=""message-div""><p>How confident are you that your clockwise/counter-clockwise response just now was accurate? Please rate your confidence on the slider bar below.</p></div>","""","""","""",50,"""","""","""",47,"2021-12-31 04:16:33",75.164.8.93,"Mozilla/5.0 (Windows NT 10.0; Win64; x64) AppleWebKit/537.36 (KHTML, like Gecko) Chrome/96.0.4664.110 Safari/537.36",WebKit,Chrome,96.0.4664.110,Windows,10.0,ac0f2dffeffaa78d35a552e03d03f0a8
23,2,"""",test_procedure,fixation,html-keyboard-response,79,353539,0.0-11.0-0.0-0.13,3PKVGQTFJQLSZOM7OKJDU84QFXXYRA,A1YVMDRR9W1LZ1,39RP059MEQU8CKDXZMEEOI83RMJBMA,M0R94,M0R94,39RP059MEQU8CKDXZMEEOI83RMJBMA,39RP059MEQU8CKDXZMEEOI83RMJBMA,338054,338054,2,0.04,"""",null,null,"<div class = fixationbox><div class = fixation>+</div></div>","""","""","""","""","""","""","""","""","2021-12-31 04:16:33",75.164.8.93,"Mozilla/5.0 (Windows NT 10.0; Win64; x64) AppleWebKit/537.36 (KHTML, like Gecko) Chrome/96.0.4664.110 Safari/537.36",WebKit,Chrome,96.0.4664.110,Windows,10.0,ac0f2dffeffaa78d35a552e03d03f0a8
23,2,"""",test_procedure,stim_test,canvas-button-response,80,366985,0.0-11.0-0.0-1.13,3PKVGQTFJQLSZOM7OKJDU84QFXXYRA,A1YVMDRR9W1LZ1,39RP059MEQU8CKDXZMEEOI83RMJBMA,M0R94,M0R94,39RP059MEQU8CKDXZMEEOI83RMJBMA,39RP059MEQU8CKDXZMEEOI83RMJBMA,338054,338054,2,0.04,"""",13422.100000143051,0,catchStim4,0,Counter-clockwise,true,"""",0.01,120,0.001,"""","2021-12-31 04:16:33",75.164.8.93,"Mozilla/5.0 (Windows NT 10.0; Win64; x64) AppleWebKit/537.36 (KHTML, like Gecko) Chrome/96.0.4664.110 Safari/537.36",WebKit,Chrome,96.0.4664.110,Windows,10.0,ac0f2dffeffaa78d35a552e03d03f0a8
23,2,"""",test_procedure,confidence_rating,html-slider-response,81,368667,0.0-11.0-0.0-2.13,3PKVGQTFJQLSZOM7OKJDU84QFXXYRA,A1YVMDRR9W1LZ1,39RP059MEQU8CKDXZMEEOI83RMJBMA,M0R94,M0R94,39RP059MEQU8CKDXZMEEOI83RMJBMA,39RP059MEQU8CKDXZMEEOI83RMJBMA,338054,338054,2,0.04,"""",1679.7999999523163,57,"<div id=""message-div""><p>How confident are you that your clockwise/counter-clockwise response just now was accurate? Please rate your confidence on the slider bar below.</p></div>","""","""","""",50,"""","""","""",57,"2021-12-31 04:16:33",75.164.8.93,"Mozilla/5.0 (Windows NT 10.0; Win64; x64) AppleWebKit/537.36 (KHTML, like Gecko) Chrome/96.0.4664.110 Safari/537.36",WebKit,Chrome,96.0.4664.110,Windows,10.0,ac0f2dffeffaa78d35a552e03d03f0a8
23,2,"""",test_procedure,fixation,html-keyboard-response,82,369170,0.0-11.0-0.0-0.14,3PKVGQTFJQLSZOM7OKJDU84QFXXYRA,A1YVMDRR9W1LZ1,39RP059MEQU8CKDXZMEEOI83RMJBMA,M0R94,M0R94,39RP059MEQU8CKDXZMEEOI83RMJBMA,39RP059MEQU8CKDXZMEEOI83RMJBMA,338054,338054,2,0.04,"""",null,null,"<div class = fixationbox><div class = fixation>+</div></div>","""","""","""","""","""","""","""","""","2021-12-31 04:16:33",75.164.8.93,"Mozilla/5.0 (Windows NT 10.0; Win64; x64) AppleWebKit/537.36 (KHTML, like Gecko) Chrome/96.0.4664.110 Safari/537.36",WebKit,Chrome,96.0.4664.110,Windows,10.0,ac0f2dffeffaa78d35a552e03d03f0a8
23,2,"""",test_procedure,stim_test,canvas-button-response,83,370632,0.0-11.0-0.0-1.14,3PKVGQTFJQLSZOM7OKJDU84QFXXYRA,A1YVMDRR9W1LZ1,39RP059MEQU8CKDXZMEEOI83RMJBMA,M0R94,M0R94,39RP059MEQU8CKDXZMEEOI83RMJBMA,39RP059MEQU8CKDXZMEEOI83RMJBMA,338054,338054,2,0.04,"""",1434.2000000476837,0,stim2,0,Counter-clockwise,true,"""",0.01,120,"""","""","2021-12-31 04:16:33",75.164.8.93,"Mozilla/5.0 (Windows NT 10.0; Win64; x64) AppleWebKit/537.36 (KHTML, like Gecko) Chrome/96.0.4664.110 Safari/537.36",WebKit,Chrome,96.0.4664.110,Windows,10.0,ac0f2dffeffaa78d35a552e03d03f0a8
23,2,"""",test_procedure,confidence_rating,html-slider-response,84,371908,0.0-11.0-0.0-2.14,3PKVGQTFJQLSZOM7OKJDU84QFXXYRA,A1YVMDRR9W1LZ1,39RP059MEQU8CKDXZMEEOI83RMJBMA,M0R94,M0R94,39RP059MEQU8CKDXZMEEOI83RMJBMA,39RP059MEQU8CKDXZMEEOI83RMJBMA,338054,338054,2,0.04,"""",1275.2000000476837,64,"<div id=""message-div""><p>How confident are you that your clockwise/counter-clockwise response just now was accurate? Please rate your confidence on the slider bar below.</p></div>","""","""","""",50,"""","""","""",64,"2021-12-31 04:16:33",75.164.8.93,"Mozilla/5.0 (Windows NT 10.0; Win64; x64) AppleWebKit/537.36 (KHTML, like Gecko) Chrome/96.0.4664.110 Safari/537.36",WebKit,Chrome,96.0.4664.110,Windows,10.0,ac0f2dffeffaa78d35a552e03d03f0a8
23,2,"""",test_procedure,fixation,html-keyboard-response,85,372411,0.0-11.0-0.0-0.15,3PKVGQTFJQLSZOM7OKJDU84QFXXYRA,A1YVMDRR9W1LZ1,39RP059MEQU8CKDXZMEEOI83RMJBMA,M0R94,M0R94,39RP059MEQU8CKDXZMEEOI83RMJBMA,39RP059MEQU8CKDXZMEEOI83RMJBMA,338054,338054,2,0.04,"""",null,null,"<div class = fixationbox><div class = fixation>+</div></div>","""","""","""","""","""","""","""","""","2021-12-31 04:16:33",75.164.8.93,"Mozilla/5.0 (Windows NT 10.0; Win64; x64) AppleWebKit/537.36 (KHTML, like Gecko) Chrome/96.0.4664.110 Safari/537.36",WebKit,Chrome,96.0.4664.110,Windows,10.0,ac0f2dffeffaa78d35a552e03d03f0a8
23,2,"""",test_procedure,stim_test,canvas-button-response,86,373478,0.0-11.0-0.0-1.15,3PKVGQTFJQLSZOM7OKJDU84QFXXYRA,A1YVMDRR9W1LZ1,39RP059MEQU8CKDXZMEEOI83RMJBMA,M0R94,M0R94,39RP059MEQU8CKDXZMEEOI83RMJBMA,39RP059MEQU8CKDXZMEEOI83RMJBMA,338054,338054,2,0.04,"""",1042.0999999046326,1,catchStim5,1,Clockwise,true,"""",0.3,60,0.6,"""","2021-12-31 04:16:33",75.164.8.93,"Mozilla/5.0 (Windows NT 10.0; Win64; x64) AppleWebKit/537.36 (KHTML, like Gecko) Chrome/96.0.4664.110 Safari/537.36",WebKit,Chrome,96.0.4664.110,Windows,10.0,ac0f2dffeffaa78d35a552e03d03f0a8
23,2,"""",test_procedure,confidence_rating,html-slider-response,87,375950,0.0-11.0-0.0-2.15,3PKVGQTFJQLSZOM7OKJDU84QFXXYRA,A1YVMDRR9W1LZ1,39RP059MEQU8CKDXZMEEOI83RMJBMA,M0R94,M0R94,39RP059MEQU8CKDXZMEEOI83RMJBMA,39RP059MEQU8CKDXZMEEOI83RMJBMA,338054,338054,2,0.04,"""",2469.7999999523163,100,"<div id=""message-div""><p>How confident are you that your clockwise/counter-clockwise response just now was accurate? Please rate your confidence on the slider bar below.</p></div>","""","""","""",50,"""","""","""",100,"2021-12-31 04:16:33",75.164.8.93,"Mozilla/5.0 (Windows NT 10.0; Win64; x64) AppleWebKit/537.36 (KHTML, like Gecko) Chrome/96.0.4664.110 Safari/537.36",WebKit,Chrome,96.0.4664.110,Windows,10.0,ac0f2dffeffaa78d35a552e03d03f0a8
23,2,"""",test_procedure,fixation,html-keyboard-response,88,376452,0.0-11.0-0.0-0.16,3PKVGQTFJQLSZOM7OKJDU84QFXXYRA,A1YVMDRR9W1LZ1,39RP059MEQU8CKDXZMEEOI83RMJBMA,M0R94,M0R94,39RP059MEQU8CKDXZMEEOI83RMJBMA,39RP059MEQU8CKDXZMEEOI83RMJBMA,338054,338054,2,0.04,"""",null,null,"<div class = fixationbox><div class = fixation>+</div></div>","""","""","""","""","""","""","""","""","2021-12-31 04:16:33",75.164.8.93,"Mozilla/5.0 (Windows NT 10.0; Win64; x64) AppleWebKit/537.36 (KHTML, like Gecko) Chrome/96.0.4664.110 Safari/537.36",WebKit,Chrome,96.0.4664.110,Windows,10.0,ac0f2dffeffaa78d35a552e03d03f0a8
23,2,"""",test_procedure,stim_test,canvas-button-response,89,379051,0.0-11.0-0.0-1.16,3PKVGQTFJQLSZOM7OKJDU84QFXXYRA,A1YVMDRR9W1LZ1,39RP059MEQU8CKDXZMEEOI83RMJBMA,M0R94,M0R94,39RP059MEQU8CKDXZMEEOI83RMJBMA,39RP059MEQU8CKDXZMEEOI83RMJBMA,338054,338054,2,0.04,"""",2575.7000000476837,1,catchStim1,1,Clockwise,true,"""",0.01,60,0.6,"""","2021-12-31 04:16:33",75.164.8.93,"Mozilla/5.0 (Windows NT 10.0; Win64; x64) AppleWebKit/537.36 (KHTML, like Gecko) Chrome/96.0.4664.110 Safari/537.36",WebKit,Chrome,96.0.4664.110,Windows,10.0,ac0f2dffeffaa78d35a552e03d03f0a8
23,2,"""",test_procedure,confidence_rating,html-slider-response,90,380490,0.0-11.0-0.0-2.16,3PKVGQTFJQLSZOM7OKJDU84QFXXYRA,A1YVMDRR9W1LZ1,39RP059MEQU8CKDXZMEEOI83RMJBMA,M0R94,M0R94,39RP059MEQU8CKDXZMEEOI83RMJBMA,39RP059MEQU8CKDXZMEEOI83RMJBMA,338054,338054,2,0.04,"""",1438,35,"<div id=""message-div""><p>How confident are you that your clockwise/counter-clockwise response just now was accurate? Please rate your confidence on the slider bar below.</p></div>","""","""","""",50,"""","""","""",35,"2021-12-31 04:16:33",75.164.8.93,"Mozilla/5.0 (Windows NT 10.0; Win64; x64) AppleWebKit/537.36 (KHTML, like Gecko) Chrome/96.0.4664.110 Safari/537.36",WebKit,Chrome,96.0.4664.110,Windows,10.0,ac0f2dffeffaa78d35a552e03d03f0a8
23,2,"""",test_procedure,fixation,html-keyboard-response,91,380993,0.0-11.0-0.0-0.17,3PKVGQTFJQLSZOM7OKJDU84QFXXYRA,A1YVMDRR9W1LZ1,39RP059MEQU8CKDXZMEEOI83RMJBMA,M0R94,M0R94,39RP059MEQU8CKDXZMEEOI83RMJBMA,39RP059MEQU8CKDXZMEEOI83RMJBMA,338054,338054,2,0.04,"""",null,null,"<div class = fixationbox><div class = fixation>+</div></div>","""","""","""","""","""","""","""","""","2021-12-31 04:16:33",75.164.8.93,"Mozilla/5.0 (Windows NT 10.0; Win64; x64) AppleWebKit/537.36 (KHTML, like Gecko) Chrome/96.0.4664.110 Safari/537.36",WebKit,Chrome,96.0.4664.110,Windows,10.0,ac0f2dffeffaa78d35a552e03d03f0a8
23,2,"""",test_procedure,stim_test,canvas-button-response,92,382418,0.0-11.0-0.0-1.17,3PKVGQTFJQLSZOM7OKJDU84QFXXYRA,A1YVMDRR9W1LZ1,39RP059MEQU8CKDXZMEEOI83RMJBMA,M0R94,M0R94,39RP059MEQU8CKDXZMEEOI83RMJBMA,39RP059MEQU8CKDXZMEEOI83RMJBMA,338054,338054,2,0.04,"""",1400.4000000953674,0,stim3,1,Clockwise,false,"""",0.3,60,"""","""","2021-12-31 04:16:33",75.164.8.93,"Mozilla/5.0 (Windows NT 10.0; Win64; x64) AppleWebKit/537.36 (KHTML, like Gecko) Chrome/96.0.4664.110 Safari/537.36",WebKit,Chrome,96.0.4664.110,Windows,10.0,ac0f2dffeffaa78d35a552e03d03f0a8
23,2,"""",test_procedure,confidence_rating,html-slider-response,93,384291,0.0-11.0-0.0-2.17,3PKVGQTFJQLSZOM7OKJDU84QFXXYRA,A1YVMDRR9W1LZ1,39RP059MEQU8CKDXZMEEOI83RMJBMA,M0R94,M0R94,39RP059MEQU8CKDXZMEEOI83RMJBMA,39RP059MEQU8CKDXZMEEOI83RMJBMA,338054,338054,2,0.04,"""",1872,55,"<div id=""message-div""><p>How confident are you that your clockwise/counter-clockwise response just now was accurate? Please rate your confidence on the slider bar below.</p></div>","""","""","""",50,"""","""","""",55,"2021-12-31 04:16:33",75.164.8.93,"Mozilla/5.0 (Windows NT 10.0; Win64; x64) AppleWebKit/537.36 (KHTML, like Gecko) Chrome/96.0.4664.110 Safari/537.36",WebKit,Chrome,96.0.4664.110,Windows,10.0,ac0f2dffeffaa78d35a552e03d03f0a8
23,2,"""",test_procedure,fixation,html-keyboard-response,94,384794,0.0-11.0-0.0-0.18,3PKVGQTFJQLSZOM7OKJDU84QFXXYRA,A1YVMDRR9W1LZ1,39RP059MEQU8CKDXZMEEOI83RMJBMA,M0R94,M0R94,39RP059MEQU8CKDXZMEEOI83RMJBMA,39RP059MEQU8CKDXZMEEOI83RMJBMA,338054,338054,2,0.04,"""",null,null,"<div class = fixationbox><div class = fixation>+</div></div>","""","""","""","""","""","""","""","""","2021-12-31 04:16:33",75.164.8.93,"Mozilla/5.0 (Windows NT 10.0; Win64; x64) AppleWebKit/537.36 (KHTML, like Gecko) Chrome/96.0.4664.110 Safari/537.36",WebKit,Chrome,96.0.4664.110,Windows,10.0,ac0f2dffeffaa78d35a552e03d03f0a8
23,2,"""",test_procedure,stim_test,canvas-button-response,95,385993,0.0-11.0-0.0-1.18,3PKVGQTFJQLSZOM7OKJDU84QFXXYRA,A1YVMDRR9W1LZ1,39RP059MEQU8CKDXZMEEOI83RMJBMA,M0R94,M0R94,39RP059MEQU8CKDXZMEEOI83RMJBMA,39RP059MEQU8CKDXZMEEOI83RMJBMA,338054,338054,2,0.04,"""",1176.2000000476837,0,stim4,0,Counter-clockwise,true,"""",0.3,120,"""","""","2021-12-31 04:16:33",75.164.8.93,"Mozilla/5.0 (Windows NT 10.0; Win64; x64) AppleWebKit/537.36 (KHTML, like Gecko) Chrome/96.0.4664.110 Safari/537.36",WebKit,Chrome,96.0.4664.110,Windows,10.0,ac0f2dffeffaa78d35a552e03d03f0a8
23,2,"""",test_procedure,confidence_rating,html-slider-response,96,387280,0.0-11.0-0.0-2.18,3PKVGQTFJQLSZOM7OKJDU84QFXXYRA,A1YVMDRR9W1LZ1,39RP059MEQU8CKDXZMEEOI83RMJBMA,M0R94,M0R94,39RP059MEQU8CKDXZMEEOI83RMJBMA,39RP059MEQU8CKDXZMEEOI83RMJBMA,338054,338054,2,0.04,"""",1286.0999999046326,56,"<div id=""message-div""><p>How confident are you that your clockwise/counter-clockwise response just now was accurate? Please rate your confidence on the slider bar below.</p></div>","""","""","""",50,"""","""","""",56,"2021-12-31 04:16:33",75.164.8.93,"Mozilla/5.0 (Windows NT 10.0; Win64; x64) AppleWebKit/537.36 (KHTML, like Gecko) Chrome/96.0.4664.110 Safari/537.36",WebKit,Chrome,96.0.4664.110,Windows,10.0,ac0f2dffeffaa78d35a552e03d03f0a8
23,2,"""",test_procedure,fixation,html-keyboard-response,97,387784,0.0-11.0-0.0-0.19,3PKVGQTFJQLSZOM7OKJDU84QFXXYRA,A1YVMDRR9W1LZ1,39RP059MEQU8CKDXZMEEOI83RMJBMA,M0R94,M0R94,39RP059MEQU8CKDXZMEEOI83RMJBMA,39RP059MEQU8CKDXZMEEOI83RMJBMA,338054,338054,2,0.04,"""",null,null,"<div class = fixationbox><div class = fixation>+</div></div>","""","""","""","""","""","""","""","""","2021-12-31 04:16:33",75.164.8.93,"Mozilla/5.0 (Windows NT 10.0; Win64; x64) AppleWebKit/537.36 (KHTML, like Gecko) Chrome/96.0.4664.110 Safari/537.36",WebKit,Chrome,96.0.4664.110,Windows,10.0,ac0f2dffeffaa78d35a552e03d03f0a8
23,2,"""",test_procedure,stim_test,canvas-button-response,98,389148,0.0-11.0-0.0-1.19,3PKVGQTFJQLSZOM7OKJDU84QFXXYRA,A1YVMDRR9W1LZ1,39RP059MEQU8CKDXZMEEOI83RMJBMA,M0R94,M0R94,39RP059MEQU8CKDXZMEEOI83RMJBMA,39RP059MEQU8CKDXZMEEOI83RMJBMA,338054,338054,2,0.04,"""",1339.7999999523163,0,catchStim3,1,Clockwise,false,"""",0.01,60,0.001,"""","2021-12-31 04:16:33",75.164.8.93,"Mozilla/5.0 (Windows NT 10.0; Win64; x64) AppleWebKit/537.36 (KHTML, like Gecko) Chrome/96.0.4664.110 Safari/537.36",WebKit,Chrome,96.0.4664.110,Windows,10.0,ac0f2dffeffaa78d35a552e03d03f0a8
23,2,"""",test_procedure,confidence_rating,html-slider-response,99,390667,0.0-11.0-0.0-2.19,3PKVGQTFJQLSZOM7OKJDU84QFXXYRA,A1YVMDRR9W1LZ1,39RP059MEQU8CKDXZMEEOI83RMJBMA,M0R94,M0R94,39RP059MEQU8CKDXZMEEOI83RMJBMA,39RP059MEQU8CKDXZMEEOI83RMJBMA,338054,338054,2,0.04,"""",1518.2000000476837,30,"<div id=""message-div""><p>How confident are you that your clockwise/counter-clockwise response just now was accurate? Please rate your confidence on the slider bar below.</p></div>","""","""","""",50,"""","""","""",30,"2021-12-31 04:16:33",75.164.8.93,"Mozilla/5.0 (Windows NT 10.0; Win64; x64) AppleWebKit/537.36 (KHTML, like Gecko) Chrome/96.0.4664.110 Safari/537.36",WebKit,Chrome,96.0.4664.110,Windows,10.0,ac0f2dffeffaa78d35a552e03d03f0a8
23,2,"""",test_procedure,fixation,html-keyboard-response,100,391172,0.0-11.0-0.0-0.20,3PKVGQTFJQLSZOM7OKJDU84QFXXYRA,A1YVMDRR9W1LZ1,39RP059MEQU8CKDXZMEEOI83RMJBMA,M0R94,M0R94,39RP059MEQU8CKDXZMEEOI83RMJBMA,39RP059MEQU8CKDXZMEEOI83RMJBMA,338054,338054,2,0.04,"""",null,null,"<div class = fixationbox><div class = fixation>+</div></div>","""","""","""","""","""","""","""","""","2021-12-31 04:16:33",75.164.8.93,"Mozilla/5.0 (Windows NT 10.0; Win64; x64) AppleWebKit/537.36 (KHTML, like Gecko) Chrome/96.0.4664.110 Safari/537.36",WebKit,Chrome,96.0.4664.110,Windows,10.0,ac0f2dffeffaa78d35a552e03d03f0a8
23,2,"""",test_procedure,stim_test,canvas-button-response,101,392660,0.0-11.0-0.0-1.20,3PKVGQTFJQLSZOM7OKJDU84QFXXYRA,A1YVMDRR9W1LZ1,39RP059MEQU8CKDXZMEEOI83RMJBMA,M0R94,M0R94,39RP059MEQU8CKDXZMEEOI83RMJBMA,39RP059MEQU8CKDXZMEEOI83RMJBMA,338054,338054,2,0.04,"""",1464,0,stim3,1,Clockwise,false,"""",0.3,60,"""","""","2021-12-31 04:16:33",75.164.8.93,"Mozilla/5.0 (Windows NT 10.0; Win64; x64) AppleWebKit/537.36 (KHTML, like Gecko) Chrome/96.0.4664.110 Safari/537.36",WebKit,Chrome,96.0.4664.110,Windows,10.0,ac0f2dffeffaa78d35a552e03d03f0a8
23,2,"""",test_procedure,confidence_rating,html-slider-response,102,393902,0.0-11.0-0.0-2.20,3PKVGQTFJQLSZOM7OKJDU84QFXXYRA,A1YVMDRR9W1LZ1,39RP059MEQU8CKDXZMEEOI83RMJBMA,M0R94,M0R94,39RP059MEQU8CKDXZMEEOI83RMJBMA,39RP059MEQU8CKDXZMEEOI83RMJBMA,338054,338054,2,0.04,"""",1241.1000001430511,62,"<div id=""message-div""><p>How confident are you that your clockwise/counter-clockwise response just now was accurate? Please rate your confidence on the slider bar below.</p></div>","""","""","""",50,"""","""","""",62,"2021-12-31 04:16:33",75.164.8.93,"Mozilla/5.0 (Windows NT 10.0; Win64; x64) AppleWebKit/537.36 (KHTML, like Gecko) Chrome/96.0.4664.110 Safari/537.36",WebKit,Chrome,96.0.4664.110,Windows,10.0,ac0f2dffeffaa78d35a552e03d03f0a8
23,2,"""",test_procedure,fixation,html-keyboard-response,103,394406,0.0-11.0-0.0-0.21,3PKVGQTFJQLSZOM7OKJDU84QFXXYRA,A1YVMDRR9W1LZ1,39RP059MEQU8CKDXZMEEOI83RMJBMA,M0R94,M0R94,39RP059MEQU8CKDXZMEEOI83RMJBMA,39RP059MEQU8CKDXZMEEOI83RMJBMA,338054,338054,2,0.04,"""",null,null,"<div class = fixationbox><div class = fixation>+</div></div>","""","""","""","""","""","""","""","""","2021-12-31 04:16:33",75.164.8.93,"Mozilla/5.0 (Windows NT 10.0; Win64; x64) AppleWebKit/537.36 (KHTML, like Gecko) Chrome/96.0.4664.110 Safari/537.36",WebKit,Chrome,96.0.4664.110,Windows,10.0,ac0f2dffeffaa78d35a552e03d03f0a8
23,2,"""",test_procedure,stim_test,canvas-button-response,104,395690,0.0-11.0-0.0-1.21,3PKVGQTFJQLSZOM7OKJDU84QFXXYRA,A1YVMDRR9W1LZ1,39RP059MEQU8CKDXZMEEOI83RMJBMA,M0R94,M0R94,39RP059MEQU8CKDXZMEEOI83RMJBMA,39RP059MEQU8CKDXZMEEOI83RMJBMA,338054,338054,2,0.04,"""",1260.2999999523163,0,stim2,0,Counter-clockwise,true,"""",0.01,120,"""","""","2021-12-31 04:16:33",75.164.8.93,"Mozilla/5.0 (Windows NT 10.0; Win64; x64) AppleWebKit/537.36 (KHTML, like Gecko) Chrome/96.0.4664.110 Safari/537.36",WebKit,Chrome,96.0.4664.110,Windows,10.0,ac0f2dffeffaa78d35a552e03d03f0a8
23,2,"""",test_procedure,confidence_rating,html-slider-response,105,396935,0.0-11.0-0.0-2.21,3PKVGQTFJQLSZOM7OKJDU84QFXXYRA,A1YVMDRR9W1LZ1,39RP059MEQU8CKDXZMEEOI83RMJBMA,M0R94,M0R94,39RP059MEQU8CKDXZMEEOI83RMJBMA,39RP059MEQU8CKDXZMEEOI83RMJBMA,338054,338054,2,0.04,"""",1244,41,"<div id=""message-div""><p>How confident are you that your clockwise/counter-clockwise response just now was accurate? Please rate your confidence on the slider bar below.</p></div>","""","""","""",50,"""","""","""",41,"2021-12-31 04:16:33",75.164.8.93,"Mozilla/5.0 (Windows NT 10.0; Win64; x64) AppleWebKit/537.36 (KHTML, like Gecko) Chrome/96.0.4664.110 Safari/537.36",WebKit,Chrome,96.0.4664.110,Windows,10.0,ac0f2dffeffaa78d35a552e03d03f0a8
23,2,"""",test_procedure,fixation,html-keyboard-response,106,397437,0.0-11.0-0.0-0.22,3PKVGQTFJQLSZOM7OKJDU84QFXXYRA,A1YVMDRR9W1LZ1,39RP059MEQU8CKDXZMEEOI83RMJBMA,M0R94,M0R94,39RP059MEQU8CKDXZMEEOI83RMJBMA,39RP059MEQU8CKDXZMEEOI83RMJBMA,338054,338054,2,0.04,"""",null,null,"<div class = fixationbox><div class = fixation>+</div></div>","""","""","""","""","""","""","""","""","2021-12-31 04:16:33",75.164.8.93,"Mozilla/5.0 (Windows NT 10.0; Win64; x64) AppleWebKit/537.36 (KHTML, like Gecko) Chrome/96.0.4664.110 Safari/537.36",WebKit,Chrome,96.0.4664.110,Windows,10.0,ac0f2dffeffaa78d35a552e03d03f0a8
23,2,"""",test_procedure,stim_test,canvas-button-response,107,399373,0.0-11.0-0.0-1.22,3PKVGQTFJQLSZOM7OKJDU84QFXXYRA,A1YVMDRR9W1LZ1,39RP059MEQU8CKDXZMEEOI83RMJBMA,M0R94,M0R94,39RP059MEQU8CKDXZMEEOI83RMJBMA,39RP059MEQU8CKDXZMEEOI83RMJBMA,338054,338054,2,0.04,"""",1911.4000000953674,0,stim1,1,Clockwise,false,"""",0.01,60,"""","""","2021-12-31 04:16:33",75.164.8.93,"Mozilla/5.0 (Windows NT 10.0; Win64; x64) AppleWebKit/537.36 (KHTML, like Gecko) Chrome/96.0.4664.110 Safari/537.36",WebKit,Chrome,96.0.4664.110,Windows,10.0,ac0f2dffeffaa78d35a552e03d03f0a8
23,2,"""",test_procedure,confidence_rating,html-slider-response,108,400828,0.0-11.0-0.0-2.22,3PKVGQTFJQLSZOM7OKJDU84QFXXYRA,A1YVMDRR9W1LZ1,39RP059MEQU8CKDXZMEEOI83RMJBMA,M0R94,M0R94,39RP059MEQU8CKDXZMEEOI83RMJBMA,39RP059MEQU8CKDXZMEEOI83RMJBMA,338054,338054,2,0.04,"""",1454,45,"<div id=""message-div""><p>How confident are you that your clockwise/counter-clockwise response just now was accurate? Please rate your confidence on the slider bar below.</p></div>","""","""","""",50,"""","""","""",45,"2021-12-31 04:16:33",75.164.8.93,"Mozilla/5.0 (Windows NT 10.0; Win64; x64) AppleWebKit/537.36 (KHTML, like Gecko) Chrome/96.0.4664.110 Safari/537.36",WebKit,Chrome,96.0.4664.110,Windows,10.0,ac0f2dffeffaa78d35a552e03d03f0a8
23,2,"""",test_procedure,fixation,html-keyboard-response,109,401331,0.0-11.0-0.0-0.23,3PKVGQTFJQLSZOM7OKJDU84QFXXYRA,A1YVMDRR9W1LZ1,39RP059MEQU8CKDXZMEEOI83RMJBMA,M0R94,M0R94,39RP059MEQU8CKDXZMEEOI83RMJBMA,39RP059MEQU8CKDXZMEEOI83RMJBMA,338054,338054,2,0.04,"""",null,null,"<div class = fixationbox><div class = fixation>+</div></div>","""","""","""","""","""","""","""","""","2021-12-31 04:16:33",75.164.8.93,"Mozilla/5.0 (Windows NT 10.0; Win64; x64) AppleWebKit/537.36 (KHTML, like Gecko) Chrome/96.0.4664.110 Safari/537.36",WebKit,Chrome,96.0.4664.110,Windows,10.0,ac0f2dffeffaa78d35a552e03d03f0a8
23,2,"""",test_procedure,stim_test,canvas-button-response,110,402566,0.0-11.0-0.0-1.23,3PKVGQTFJQLSZOM7OKJDU84QFXXYRA,A1YVMDRR9W1LZ1,39RP059MEQU8CKDXZMEEOI83RMJBMA,M0R94,M0R94,39RP059MEQU8CKDXZMEEOI83RMJBMA,39RP059MEQU8CKDXZMEEOI83RMJBMA,338054,338054,2,0.04,"""",1210.9000000953674,0,stim1,1,Clockwise,false,"""",0.01,60,"""","""","2021-12-31 04:16:33",75.164.8.93,"Mozilla/5.0 (Windows NT 10.0; Win64; x64) AppleWebKit/537.36 (KHTML, like Gecko) Chrome/96.0.4664.110 Safari/537.36",WebKit,Chrome,96.0.4664.110,Windows,10.0,ac0f2dffeffaa78d35a552e03d03f0a8
23,2,"""",test_procedure,confidence_rating,html-slider-response,111,404145,0.0-11.0-0.0-2.23,3PKVGQTFJQLSZOM7OKJDU84QFXXYRA,A1YVMDRR9W1LZ1,39RP059MEQU8CKDXZMEEOI83RMJBMA,M0R94,M0R94,39RP059MEQU8CKDXZMEEOI83RMJBMA,39RP059MEQU8CKDXZMEEOI83RMJBMA,338054,338054,2,0.04,"""",1578,57,"<div id=""message-div""><p>How confident are you that your clockwise/counter-clockwise response just now was accurate? Please rate your confidence on the slider bar below.</p></div>","""","""","""",50,"""","""","""",57,"2021-12-31 04:16:33",75.164.8.93,"Mozilla/5.0 (Windows NT 10.0; Win64; x64) AppleWebKit/537.36 (KHTML, like Gecko) Chrome/96.0.4664.110 Safari/537.36",WebKit,Chrome,96.0.4664.110,Windows,10.0,ac0f2dffeffaa78d35a552e03d03f0a8
23,2,"""",test_procedure,rest_block,html-button-response,112,408467,0.0-11.0-0.0-3.23-0.23,3PKVGQTFJQLSZOM7OKJDU84QFXXYRA,A1YVMDRR9W1LZ1,39RP059MEQU8CKDXZMEEOI83RMJBMA,M0R94,M0R94,39RP059MEQU8CKDXZMEEOI83RMJBMA,39RP059MEQU8CKDXZMEEOI83RMJBMA,338054,338054,2,0.04,"""",4321.099999904633,0,"[""<p>You responded correctly on 62.50% of the trials in the previous section.</p><p>Time to take a break!</p><p>Once you're ready, press the \"Continue\" button to continue.</p>""]","""","""","""","""","""","""","""","""","2021-12-31 04:16:33",75.164.8.93,"Mozilla/5.0 (Windows NT 10.0; Win64; x64) AppleWebKit/537.36 (KHTML, like Gecko) Chrome/96.0.4664.110 Safari/537.36",WebKit,Chrome,96.0.4664.110,Windows,10.0,ac0f2dffeffaa78d35a552e03d03f0a8
23,2,"""",test_procedure,fixation,html-keyboard-response,113,408970,0.0-11.0-0.1-0.24,3PKVGQTFJQLSZOM7OKJDU84QFXXYRA,A1YVMDRR9W1LZ1,39RP059MEQU8CKDXZMEEOI83RMJBMA,M0R94,M0R94,39RP059MEQU8CKDXZMEEOI83RMJBMA,39RP059MEQU8CKDXZMEEOI83RMJBMA,338054,338054,2,0.04,"""",null,null,"<div class = fixationbox><div class = fixation>+</div></div>","""","""","""","""","""","""","""","""","2021-12-31 04:16:33",75.164.8.93,"Mozilla/5.0 (Windows NT 10.0; Win64; x64) AppleWebKit/537.36 (KHTML, like Gecko) Chrome/96.0.4664.110 Safari/537.36",WebKit,Chrome,96.0.4664.110,Windows,10.0,ac0f2dffeffaa78d35a552e03d03f0a8
23,2,"""",test_procedure,stim_test,canvas-button-response,114,410173,0.0-11.0-0.1-1.24,3PKVGQTFJQLSZOM7OKJDU84QFXXYRA,A1YVMDRR9W1LZ1,39RP059MEQU8CKDXZMEEOI83RMJBMA,M0R94,M0R94,39RP059MEQU8CKDXZMEEOI83RMJBMA,39RP059MEQU8CKDXZMEEOI83RMJBMA,338054,338054,2,0.04,"""",1177.4000000953674,1,catchStim1,1,Clockwise,true,"""",0.01,60,0.6,"""","2021-12-31 04:16:33",75.164.8.93,"Mozilla/5.0 (Windows NT 10.0; Win64; x64) AppleWebKit/537.36 (KHTML, like Gecko) Chrome/96.0.4664.110 Safari/537.36",WebKit,Chrome,96.0.4664.110,Windows,10.0,ac0f2dffeffaa78d35a552e03d03f0a8
23,2,"""",test_procedure,confidence_rating,html-slider-response,115,412378,0.0-11.0-0.1-2.24,3PKVGQTFJQLSZOM7OKJDU84QFXXYRA,A1YVMDRR9W1LZ1,39RP059MEQU8CKDXZMEEOI83RMJBMA,M0R94,M0R94,39RP059MEQU8CKDXZMEEOI83RMJBMA,39RP059MEQU8CKDXZMEEOI83RMJBMA,338054,338054,2,0.04,"""",2204,100,"<div id=""message-div""><p>How confident are you that your clockwise/counter-clockwise response just now was accurate? Please rate your confidence on the slider bar below.</p></div>","""","""","""",50,"""","""","""",100,"2021-12-31 04:16:33",75.164.8.93,"Mozilla/5.0 (Windows NT 10.0; Win64; x64) AppleWebKit/537.36 (KHTML, like Gecko) Chrome/96.0.4664.110 Safari/537.36",WebKit,Chrome,96.0.4664.110,Windows,10.0,ac0f2dffeffaa78d35a552e03d03f0a8
23,2,"""",test_procedure,fixation,html-keyboard-response,116,412879,0.0-11.0-0.1-0.25,3PKVGQTFJQLSZOM7OKJDU84QFXXYRA,A1YVMDRR9W1LZ1,39RP059MEQU8CKDXZMEEOI83RMJBMA,M0R94,M0R94,39RP059MEQU8CKDXZMEEOI83RMJBMA,39RP059MEQU8CKDXZMEEOI83RMJBMA,338054,338054,2,0.04,"""",null,null,"<div class = fixationbox><div class = fixation>+</div></div>","""","""","""","""","""","""","""","""","2021-12-31 04:16:33",75.164.8.93,"Mozilla/5.0 (Windows NT 10.0; Win64; x64) AppleWebKit/537.36 (KHTML, like Gecko) Chrome/96.0.4664.110 Safari/537.36",WebKit,Chrome,96.0.4664.110,Windows,10.0,ac0f2dffeffaa78d35a552e03d03f0a8
23,2,"""",test_procedure,stim_test,canvas-button-response,117,414566,0.0-11.0-0.1-1.25,3PKVGQTFJQLSZOM7OKJDU84QFXXYRA,A1YVMDRR9W1LZ1,39RP059MEQU8CKDXZMEEOI83RMJBMA,M0R94,M0R94,39RP059MEQU8CKDXZMEEOI83RMJBMA,39RP059MEQU8CKDXZMEEOI83RMJBMA,338054,338054,2,0.04,"""",1661.3000001907349,1,stim3,1,Clockwise,true,"""",0.3,60,"""","""","2021-12-31 04:16:33",75.164.8.93,"Mozilla/5.0 (Windows NT 10.0; Win64; x64) AppleWebKit/537.36 (KHTML, like Gecko) Chrome/96.0.4664.110 Safari/537.36",WebKit,Chrome,96.0.4664.110,Windows,10.0,ac0f2dffeffaa78d35a552e03d03f0a8
23,2,"""",test_procedure,confidence_rating,html-slider-response,118,416198,0.0-11.0-0.1-2.25,3PKVGQTFJQLSZOM7OKJDU84QFXXYRA,A1YVMDRR9W1LZ1,39RP059MEQU8CKDXZMEEOI83RMJBMA,M0R94,M0R94,39RP059MEQU8CKDXZMEEOI83RMJBMA,39RP059MEQU8CKDXZMEEOI83RMJBMA,338054,338054,2,0.04,"""",1629.5999999046326,91,"<div id=""message-div""><p>How confident are you that your clockwise/counter-clockwise response just now was accurate? Please rate your confidence on the slider bar below.</p></div>","""","""","""",50,"""","""","""",91,"2021-12-31 04:16:33",75.164.8.93,"Mozilla/5.0 (Windows NT 10.0; Win64; x64) AppleWebKit/537.36 (KHTML, like Gecko) Chrome/96.0.4664.110 Safari/537.36",WebKit,Chrome,96.0.4664.110,Windows,10.0,ac0f2dffeffaa78d35a552e03d03f0a8
23,2,"""",test_procedure,fixation,html-keyboard-response,119,416700,0.0-11.0-0.1-0.26,3PKVGQTFJQLSZOM7OKJDU84QFXXYRA,A1YVMDRR9W1LZ1,39RP059MEQU8CKDXZMEEOI83RMJBMA,M0R94,M0R94,39RP059MEQU8CKDXZMEEOI83RMJBMA,39RP059MEQU8CKDXZMEEOI83RMJBMA,338054,338054,2,0.04,"""",null,null,"<div class = fixationbox><div class = fixation>+</div></div>","""","""","""","""","""","""","""","""","2021-12-31 04:16:33",75.164.8.93,"Mozilla/5.0 (Windows NT 10.0; Win64; x64) AppleWebKit/537.36 (KHTML, like Gecko) Chrome/96.0.4664.110 Safari/537.36",WebKit,Chrome,96.0.4664.110,Windows,10.0,ac0f2dffeffaa78d35a552e03d03f0a8
23,2,"""",test_procedure,stim_test,canvas-button-response,120,418101,0.0-11.0-0.1-1.26,3PKVGQTFJQLSZOM7OKJDU84QFXXYRA,A1YVMDRR9W1LZ1,39RP059MEQU8CKDXZMEEOI83RMJBMA,M0R94,M0R94,39RP059MEQU8CKDXZMEEOI83RMJBMA,39RP059MEQU8CKDXZMEEOI83RMJBMA,338054,338054,2,0.04,"""",1374.7000000476837,0,catchStim2,0,Counter-clockwise,true,"""",0.01,120,0.6,"""","2021-12-31 04:16:33",75.164.8.93,"Mozilla/5.0 (Windows NT 10.0; Win64; x64) AppleWebKit/537.36 (KHTML, like Gecko) Chrome/96.0.4664.110 Safari/537.36",WebKit,Chrome,96.0.4664.110,Windows,10.0,ac0f2dffeffaa78d35a552e03d03f0a8
23,2,"""",test_procedure,confidence_rating,html-slider-response,121,420964,0.0-11.0-0.1-2.26,3PKVGQTFJQLSZOM7OKJDU84QFXXYRA,A1YVMDRR9W1LZ1,39RP059MEQU8CKDXZMEEOI83RMJBMA,M0R94,M0R94,39RP059MEQU8CKDXZMEEOI83RMJBMA,39RP059MEQU8CKDXZMEEOI83RMJBMA,338054,338054,2,0.04,"""",2862.2999999523163,100,"<div id=""message-div""><p>How confident are you that your clockwise/counter-clockwise response just now was accurate? Please rate your confidence on the slider bar below.</p></div>","""","""","""",50,"""","""","""",100,"2021-12-31 04:16:33",75.164.8.93,"Mozilla/5.0 (Windows NT 10.0; Win64; x64) AppleWebKit/537.36 (KHTML, like Gecko) Chrome/96.0.4664.110 Safari/537.36",WebKit,Chrome,96.0.4664.110,Windows,10.0,ac0f2dffeffaa78d35a552e03d03f0a8
23,2,"""",test_procedure,fixation,html-keyboard-response,122,421467,0.0-11.0-0.1-0.27,3PKVGQTFJQLSZOM7OKJDU84QFXXYRA,A1YVMDRR9W1LZ1,39RP059MEQU8CKDXZMEEOI83RMJBMA,M0R94,M0R94,39RP059MEQU8CKDXZMEEOI83RMJBMA,39RP059MEQU8CKDXZMEEOI83RMJBMA,338054,338054,2,0.04,"""",null,null,"<div class = fixationbox><div class = fixation>+</div></div>","""","""","""","""","""","""","""","""","2021-12-31 04:16:33",75.164.8.93,"Mozilla/5.0 (Windows NT 10.0; Win64; x64) AppleWebKit/537.36 (KHTML, like Gecko) Chrome/96.0.4664.110 Safari/537.36",WebKit,Chrome,96.0.4664.110,Windows,10.0,ac0f2dffeffaa78d35a552e03d03f0a8
23,2,"""",test_procedure,stim_test,canvas-button-response,123,422921,0.0-11.0-0.1-1.27,3PKVGQTFJQLSZOM7OKJDU84QFXXYRA,A1YVMDRR9W1LZ1,39RP059MEQU8CKDXZMEEOI83RMJBMA,M0R94,M0R94,39RP059MEQU8CKDXZMEEOI83RMJBMA,39RP059MEQU8CKDXZMEEOI83RMJBMA,338054,338054,2,0.04,"""",1427.7000000476837,0,catchStim8,0,Counter-clockwise,true,"""",0.3,120,0.001,"""","2021-12-31 04:16:33",75.164.8.93,"Mozilla/5.0 (Windows NT 10.0; Win64; x64) AppleWebKit/537.36 (KHTML, like Gecko) Chrome/96.0.4664.110 Safari/537.36",WebKit,Chrome,96.0.4664.110,Windows,10.0,ac0f2dffeffaa78d35a552e03d03f0a8
23,2,"""",test_procedure,confidence_rating,html-slider-response,124,424269,0.0-11.0-0.1-2.27,3PKVGQTFJQLSZOM7OKJDU84QFXXYRA,A1YVMDRR9W1LZ1,39RP059MEQU8CKDXZMEEOI83RMJBMA,M0R94,M0R94,39RP059MEQU8CKDXZMEEOI83RMJBMA,39RP059MEQU8CKDXZMEEOI83RMJBMA,338054,338054,2,0.04,"""",1347.1000001430511,69,"<div id=""message-div""><p>How confident are you that your clockwise/counter-clockwise response just now was accurate? Please rate your confidence on the slider bar below.</p></div>","""","""","""",50,"""","""","""",69,"2021-12-31 04:16:33",75.164.8.93,"Mozilla/5.0 (Windows NT 10.0; Win64; x64) AppleWebKit/537.36 (KHTML, like Gecko) Chrome/96.0.4664.110 Safari/537.36",WebKit,Chrome,96.0.4664.110,Windows,10.0,ac0f2dffeffaa78d35a552e03d03f0a8
23,2,"""",test_procedure,fixation,html-keyboard-response,125,424771,0.0-11.0-0.1-0.28,3PKVGQTFJQLSZOM7OKJDU84QFXXYRA,A1YVMDRR9W1LZ1,39RP059MEQU8CKDXZMEEOI83RMJBMA,M0R94,M0R94,39RP059MEQU8CKDXZMEEOI83RMJBMA,39RP059MEQU8CKDXZMEEOI83RMJBMA,338054,338054,2,0.04,"""",null,null,"<div class = fixationbox><div class = fixation>+</div></div>","""","""","""","""","""","""","""","""","2021-12-31 04:16:33",75.164.8.93,"Mozilla/5.0 (Windows NT 10.0; Win64; x64) AppleWebKit/537.36 (KHTML, like Gecko) Chrome/96.0.4664.110 Safari/537.36",WebKit,Chrome,96.0.4664.110,Windows,10.0,ac0f2dffeffaa78d35a552e03d03f0a8
23,2,"""",test_procedure,stim_test,canvas-button-response,126,425950,0.0-11.0-0.1-1.28,3PKVGQTFJQLSZOM7OKJDU84QFXXYRA,A1YVMDRR9W1LZ1,39RP059MEQU8CKDXZMEEOI83RMJBMA,M0R94,M0R94,39RP059MEQU8CKDXZMEEOI83RMJBMA,39RP059MEQU8CKDXZMEEOI83RMJBMA,338054,338054,2,0.04,"""",1153.2999999523163,0,catchStim4,0,Counter-clockwise,true,"""",0.01,120,0.001,"""","2021-12-31 04:16:33",75.164.8.93,"Mozilla/5.0 (Windows NT 10.0; Win64; x64) AppleWebKit/537.36 (KHTML, like Gecko) Chrome/96.0.4664.110 Safari/537.36",WebKit,Chrome,96.0.4664.110,Windows,10.0,ac0f2dffeffaa78d35a552e03d03f0a8
23,2,"""",test_procedure,confidence_rating,html-slider-response,127,427366,0.0-11.0-0.1-2.28,3PKVGQTFJQLSZOM7OKJDU84QFXXYRA,A1YVMDRR9W1LZ1,39RP059MEQU8CKDXZMEEOI83RMJBMA,M0R94,M0R94,39RP059MEQU8CKDXZMEEOI83RMJBMA,39RP059MEQU8CKDXZMEEOI83RMJBMA,338054,338054,2,0.04,"""",1415.2000000476837,76,"<div id=""message-div""><p>How confident are you that your clockwise/counter-clockwise response just now was accurate? Please rate your confidence on the slider bar below.</p></div>","""","""","""",50,"""","""","""",76,"2021-12-31 04:16:33",75.164.8.93,"Mozilla/5.0 (Windows NT 10.0; Win64; x64) AppleWebKit/537.36 (KHTML, like Gecko) Chrome/96.0.4664.110 Safari/537.36",WebKit,Chrome,96.0.4664.110,Windows,10.0,ac0f2dffeffaa78d35a552e03d03f0a8
23,2,"""",test_procedure,fixation,html-keyboard-response,128,427868,0.0-11.0-0.1-0.29,3PKVGQTFJQLSZOM7OKJDU84QFXXYRA,A1YVMDRR9W1LZ1,39RP059MEQU8CKDXZMEEOI83RMJBMA,M0R94,M0R94,39RP059MEQU8CKDXZMEEOI83RMJBMA,39RP059MEQU8CKDXZMEEOI83RMJBMA,338054,338054,2,0.04,"""",null,null,"<div class = fixationbox><div class = fixation>+</div></div>","""","""","""","""","""","""","""","""","2021-12-31 04:16:33",75.164.8.93,"Mozilla/5.0 (Windows NT 10.0; Win64; x64) AppleWebKit/537.36 (KHTML, like Gecko) Chrome/96.0.4664.110 Safari/537.36",WebKit,Chrome,96.0.4664.110,Windows,10.0,ac0f2dffeffaa78d35a552e03d03f0a8
23,2,"""",test_procedure,stim_test,canvas-button-response,129,429068,0.0-11.0-0.1-1.29,3PKVGQTFJQLSZOM7OKJDU84QFXXYRA,A1YVMDRR9W1LZ1,39RP059MEQU8CKDXZMEEOI83RMJBMA,M0R94,M0R94,39RP059MEQU8CKDXZMEEOI83RMJBMA,39RP059MEQU8CKDXZMEEOI83RMJBMA,338054,338054,2,0.04,"""",1175.5999999046326,0,catchStim6,0,Counter-clockwise,true,"""",0.3,120,0.6,"""","2021-12-31 04:16:33",75.164.8.93,"Mozilla/5.0 (Windows NT 10.0; Win64; x64) AppleWebKit/537.36 (KHTML, like Gecko) Chrome/96.0.4664.110 Safari/537.36",WebKit,Chrome,96.0.4664.110,Windows,10.0,ac0f2dffeffaa78d35a552e03d03f0a8
23,2,"""",test_procedure,confidence_rating,html-slider-response,130,431178,0.0-11.0-0.1-2.29,3PKVGQTFJQLSZOM7OKJDU84QFXXYRA,A1YVMDRR9W1LZ1,39RP059MEQU8CKDXZMEEOI83RMJBMA,M0R94,M0R94,39RP059MEQU8CKDXZMEEOI83RMJBMA,39RP059MEQU8CKDXZMEEOI83RMJBMA,338054,338054,2,0.04,"""",2109.100000143051,100,"<div id=""message-div""><p>How confident are you that your clockwise/counter-clockwise response just now was accurate? Please rate your confidence on the slider bar below.</p></div>","""","""","""",50,"""","""","""",100,"2021-12-31 04:16:33",75.164.8.93,"Mozilla/5.0 (Windows NT 10.0; Win64; x64) AppleWebKit/537.36 (KHTML, like Gecko) Chrome/96.0.4664.110 Safari/537.36",WebKit,Chrome,96.0.4664.110,Windows,10.0,ac0f2dffeffaa78d35a552e03d03f0a8
23,2,"""",test_procedure,fixation,html-keyboard-response,131,431690,0.0-11.0-0.1-0.30,3PKVGQTFJQLSZOM7OKJDU84QFXXYRA,A1YVMDRR9W1LZ1,39RP059MEQU8CKDXZMEEOI83RMJBMA,M0R94,M0R94,39RP059MEQU8CKDXZMEEOI83RMJBMA,39RP059MEQU8CKDXZMEEOI83RMJBMA,338054,338054,2,0.04,"""",null,null,"<div class = fixationbox><div class = fixation>+</div></div>","""","""","""","""","""","""","""","""","2021-12-31 04:16:33",75.164.8.93,"Mozilla/5.0 (Windows NT 10.0; Win64; x64) AppleWebKit/537.36 (KHTML, like Gecko) Chrome/96.0.4664.110 Safari/537.36",WebKit,Chrome,96.0.4664.110,Windows,10.0,ac0f2dffeffaa78d35a552e03d03f0a8
23,2,"""",test_procedure,stim_test,canvas-button-response,132,433007,0.0-11.0-0.1-1.30,3PKVGQTFJQLSZOM7OKJDU84QFXXYRA,A1YVMDRR9W1LZ1,39RP059MEQU8CKDXZMEEOI83RMJBMA,M0R94,M0R94,39RP059MEQU8CKDXZMEEOI83RMJBMA,39RP059MEQU8CKDXZMEEOI83RMJBMA,338054,338054,2,0.04,"""",1291.7000000476837,0,stim2,0,Counter-clockwise,true,"""",0.01,120,"""","""","2021-12-31 04:16:33",75.164.8.93,"Mozilla/5.0 (Windows NT 10.0; Win64; x64) AppleWebKit/537.36 (KHTML, like Gecko) Chrome/96.0.4664.110 Safari/537.36",WebKit,Chrome,96.0.4664.110,Windows,10.0,ac0f2dffeffaa78d35a552e03d03f0a8
23,2,"""",test_procedure,confidence_rating,html-slider-response,133,434754,0.0-11.0-0.1-2.30,3PKVGQTFJQLSZOM7OKJDU84QFXXYRA,A1YVMDRR9W1LZ1,39RP059MEQU8CKDXZMEEOI83RMJBMA,M0R94,M0R94,39RP059MEQU8CKDXZMEEOI83RMJBMA,39RP059MEQU8CKDXZMEEOI83RMJBMA,338054,338054,2,0.04,"""",1746.1000001430511,74,"<div id=""message-div""><p>How confident are you that your clockwise/counter-clockwise response just now was accurate? Please rate your confidence on the slider bar below.</p></div>","""","""","""",50,"""","""","""",74,"2021-12-31 04:16:33",75.164.8.93,"Mozilla/5.0 (Windows NT 10.0; Win64; x64) AppleWebKit/537.36 (KHTML, like Gecko) Chrome/96.0.4664.110 Safari/537.36",WebKit,Chrome,96.0.4664.110,Windows,10.0,ac0f2dffeffaa78d35a552e03d03f0a8
23,2,"""",test_procedure,fixation,html-keyboard-response,134,435257,0.0-11.0-0.1-0.31,3PKVGQTFJQLSZOM7OKJDU84QFXXYRA,A1YVMDRR9W1LZ1,39RP059MEQU8CKDXZMEEOI83RMJBMA,M0R94,M0R94,39RP059MEQU8CKDXZMEEOI83RMJBMA,39RP059MEQU8CKDXZMEEOI83RMJBMA,338054,338054,2,0.04,"""",null,null,"<div class = fixationbox><div class = fixation>+</div></div>","""","""","""","""","""","""","""","""","2021-12-31 04:16:33",75.164.8.93,"Mozilla/5.0 (Windows NT 10.0; Win64; x64) AppleWebKit/537.36 (KHTML, like Gecko) Chrome/96.0.4664.110 Safari/537.36",WebKit,Chrome,96.0.4664.110,Windows,10.0,ac0f2dffeffaa78d35a552e03d03f0a8
23,2,"""",test_procedure,stim_test,canvas-button-response,135,436553,0.0-11.0-0.1-1.31,3PKVGQTFJQLSZOM7OKJDU84QFXXYRA,A1YVMDRR9W1LZ1,39RP059MEQU8CKDXZMEEOI83RMJBMA,M0R94,M0R94,39RP059MEQU8CKDXZMEEOI83RMJBMA,39RP059MEQU8CKDXZMEEOI83RMJBMA,338054,338054,2,0.04,"""",1272.3000001907349,0,stim3,1,Clockwise,false,"""",0.3,60,"""","""","2021-12-31 04:16:33",75.164.8.93,"Mozilla/5.0 (Windows NT 10.0; Win64; x64) AppleWebKit/537.36 (KHTML, like Gecko) Chrome/96.0.4664.110 Safari/537.36",WebKit,Chrome,96.0.4664.110,Windows,10.0,ac0f2dffeffaa78d35a552e03d03f0a8
23,2,"""",test_procedure,confidence_rating,html-slider-response,136,439170,0.0-11.0-0.1-2.31,3PKVGQTFJQLSZOM7OKJDU84QFXXYRA,A1YVMDRR9W1LZ1,39RP059MEQU8CKDXZMEEOI83RMJBMA,M0R94,M0R94,39RP059MEQU8CKDXZMEEOI83RMJBMA,39RP059MEQU8CKDXZMEEOI83RMJBMA,338054,338054,2,0.04,"""",2616.0999999046326,64,"<div id=""message-div""><p>How confident are you that your clockwise/counter-clockwise response just now was accurate? Please rate your confidence on the slider bar below.</p></div>","""","""","""",50,"""","""","""",64,"2021-12-31 04:16:33",75.164.8.93,"Mozilla/5.0 (Windows NT 10.0; Win64; x64) AppleWebKit/537.36 (KHTML, like Gecko) Chrome/96.0.4664.110 Safari/537.36",WebKit,Chrome,96.0.4664.110,Windows,10.0,ac0f2dffeffaa78d35a552e03d03f0a8
23,2,"""",test_procedure,fixation,html-keyboard-response,137,439671,0.0-11.0-0.1-0.32,3PKVGQTFJQLSZOM7OKJDU84QFXXYRA,A1YVMDRR9W1LZ1,39RP059MEQU8CKDXZMEEOI83RMJBMA,M0R94,M0R94,39RP059MEQU8CKDXZMEEOI83RMJBMA,39RP059MEQU8CKDXZMEEOI83RMJBMA,338054,338054,2,0.04,"""",null,null,"<div class = fixationbox><div class = fixation>+</div></div>","""","""","""","""","""","""","""","""","2021-12-31 04:16:33",75.164.8.93,"Mozilla/5.0 (Windows NT 10.0; Win64; x64) AppleWebKit/537.36 (KHTML, like Gecko) Chrome/96.0.4664.110 Safari/537.36",WebKit,Chrome,96.0.4664.110,Windows,10.0,ac0f2dffeffaa78d35a552e03d03f0a8
23,2,"""",test_procedure,stim_test,canvas-button-response,138,440924,0.0-11.0-0.1-1.32,3PKVGQTFJQLSZOM7OKJDU84QFXXYRA,A1YVMDRR9W1LZ1,39RP059MEQU8CKDXZMEEOI83RMJBMA,M0R94,M0R94,39RP059MEQU8CKDXZMEEOI83RMJBMA,39RP059MEQU8CKDXZMEEOI83RMJBMA,338054,338054,2,0.04,"""",1229.0999999046326,0,catchStim3,1,Clockwise,false,"""",0.01,60,0.001,"""","2021-12-31 04:16:33",75.164.8.93,"Mozilla/5.0 (Windows NT 10.0; Win64; x64) AppleWebKit/537.36 (KHTML, like Gecko) Chrome/96.0.4664.110 Safari/537.36",WebKit,Chrome,96.0.4664.110,Windows,10.0,ac0f2dffeffaa78d35a552e03d03f0a8
23,2,"""",test_procedure,confidence_rating,html-slider-response,139,442662,0.0-11.0-0.1-2.32,3PKVGQTFJQLSZOM7OKJDU84QFXXYRA,A1YVMDRR9W1LZ1,39RP059MEQU8CKDXZMEEOI83RMJBMA,M0R94,M0R94,39RP059MEQU8CKDXZMEEOI83RMJBMA,39RP059MEQU8CKDXZMEEOI83RMJBMA,338054,338054,2,0.04,"""",1737.7999999523163,61,"<div id=""message-div""><p>How confident are you that your clockwise/counter-clockwise response just now was accurate? Please rate your confidence on the slider bar below.</p></div>","""","""","""",50,"""","""","""",61,"2021-12-31 04:16:33",75.164.8.93,"Mozilla/5.0 (Windows NT 10.0; Win64; x64) AppleWebKit/537.36 (KHTML, like Gecko) Chrome/96.0.4664.110 Safari/537.36",WebKit,Chrome,96.0.4664.110,Windows,10.0,ac0f2dffeffaa78d35a552e03d03f0a8
23,2,"""",test_procedure,fixation,html-keyboard-response,140,443165,0.0-11.0-0.1-0.33,3PKVGQTFJQLSZOM7OKJDU84QFXXYRA,A1YVMDRR9W1LZ1,39RP059MEQU8CKDXZMEEOI83RMJBMA,M0R94,M0R94,39RP059MEQU8CKDXZMEEOI83RMJBMA,39RP059MEQU8CKDXZMEEOI83RMJBMA,338054,338054,2,0.04,"""",null,null,"<div class = fixationbox><div class = fixation>+</div></div>","""","""","""","""","""","""","""","""","2021-12-31 04:16:33",75.164.8.93,"Mozilla/5.0 (Windows NT 10.0; Win64; x64) AppleWebKit/537.36 (KHTML, like Gecko) Chrome/96.0.4664.110 Safari/537.36",WebKit,Chrome,96.0.4664.110,Windows,10.0,ac0f2dffeffaa78d35a552e03d03f0a8
23,2,"""",test_procedure,stim_test,canvas-button-response,141,444370,0.0-11.0-0.1-1.33,3PKVGQTFJQLSZOM7OKJDU84QFXXYRA,A1YVMDRR9W1LZ1,39RP059MEQU8CKDXZMEEOI83RMJBMA,M0R94,M0R94,39RP059MEQU8CKDXZMEEOI83RMJBMA,39RP059MEQU8CKDXZMEEOI83RMJBMA,338054,338054,2,0.04,"""",1180.9000000953674,1,stim3,1,Clockwise,true,"""",0.3,60,"""","""","2021-12-31 04:16:33",75.164.8.93,"Mozilla/5.0 (Windows NT 10.0; Win64; x64) AppleWebKit/537.36 (KHTML, like Gecko) Chrome/96.0.4664.110 Safari/537.36",WebKit,Chrome,96.0.4664.110,Windows,10.0,ac0f2dffeffaa78d35a552e03d03f0a8
23,2,"""",test_procedure,confidence_rating,html-slider-response,142,446162,0.0-11.0-0.1-2.33,3PKVGQTFJQLSZOM7OKJDU84QFXXYRA,A1YVMDRR9W1LZ1,39RP059MEQU8CKDXZMEEOI83RMJBMA,M0R94,M0R94,39RP059MEQU8CKDXZMEEOI83RMJBMA,39RP059MEQU8CKDXZMEEOI83RMJBMA,338054,338054,2,0.04,"""",1791,87,"<div id=""message-div""><p>How confident are you that your clockwise/counter-clockwise response just now was accurate? Please rate your confidence on the slider bar below.</p></div>","""","""","""",50,"""","""","""",87,"2021-12-31 04:16:33",75.164.8.93,"Mozilla/5.0 (Windows NT 10.0; Win64; x64) AppleWebKit/537.36 (KHTML, like Gecko) Chrome/96.0.4664.110 Safari/537.36",WebKit,Chrome,96.0.4664.110,Windows,10.0,ac0f2dffeffaa78d35a552e03d03f0a8
23,2,"""",test_procedure,fixation,html-keyboard-response,143,446663,0.0-11.0-0.1-0.34,3PKVGQTFJQLSZOM7OKJDU84QFXXYRA,A1YVMDRR9W1LZ1,39RP059MEQU8CKDXZMEEOI83RMJBMA,M0R94,M0R94,39RP059MEQU8CKDXZMEEOI83RMJBMA,39RP059MEQU8CKDXZMEEOI83RMJBMA,338054,338054,2,0.04,"""",null,null,"<div class = fixationbox><div class = fixation>+</div></div>","""","""","""","""","""","""","""","""","2021-12-31 04:16:33",75.164.8.93,"Mozilla/5.0 (Windows NT 10.0; Win64; x64) AppleWebKit/537.36 (KHTML, like Gecko) Chrome/96.0.4664.110 Safari/537.36",WebKit,Chrome,96.0.4664.110,Windows,10.0,ac0f2dffeffaa78d35a552e03d03f0a8
23,2,"""",test_procedure,stim_test,canvas-button-response,144,448133,0.0-11.0-0.1-1.34,3PKVGQTFJQLSZOM7OKJDU84QFXXYRA,A1YVMDRR9W1LZ1,39RP059MEQU8CKDXZMEEOI83RMJBMA,M0R94,M0R94,39RP059MEQU8CKDXZMEEOI83RMJBMA,39RP059MEQU8CKDXZMEEOI83RMJBMA,338054,338054,2,0.04,"""",1445.6000001430511,1,stim2,0,Counter-clockwise,false,"""",0.01,120,"""","""","2021-12-31 04:16:33",75.164.8.93,"Mozilla/5.0 (Windows NT 10.0; Win64; x64) AppleWebKit/537.36 (KHTML, like Gecko) Chrome/96.0.4664.110 Safari/537.36",WebKit,Chrome,96.0.4664.110,Windows,10.0,ac0f2dffeffaa78d35a552e03d03f0a8
23,2,"""",test_procedure,confidence_rating,html-slider-response,145,449534,0.0-11.0-0.1-2.34,3PKVGQTFJQLSZOM7OKJDU84QFXXYRA,A1YVMDRR9W1LZ1,39RP059MEQU8CKDXZMEEOI83RMJBMA,M0R94,M0R94,39RP059MEQU8CKDXZMEEOI83RMJBMA,39RP059MEQU8CKDXZMEEOI83RMJBMA,338054,338054,2,0.04,"""",1400.2999999523163,37,"<div id=""message-div""><p>How confident are you that your clockwise/counter-clockwise response just now was accurate? Please rate your confidence on the slider bar below.</p></div>","""","""","""",50,"""","""","""",37,"2021-12-31 04:16:33",75.164.8.93,"Mozilla/5.0 (Windows NT 10.0; Win64; x64) AppleWebKit/537.36 (KHTML, like Gecko) Chrome/96.0.4664.110 Safari/537.36",WebKit,Chrome,96.0.4664.110,Windows,10.0,ac0f2dffeffaa78d35a552e03d03f0a8
23,2,"""",test_procedure,fixation,html-keyboard-response,146,450037,0.0-11.0-0.1-0.35,3PKVGQTFJQLSZOM7OKJDU84QFXXYRA,A1YVMDRR9W1LZ1,39RP059MEQU8CKDXZMEEOI83RMJBMA,M0R94,M0R94,39RP059MEQU8CKDXZMEEOI83RMJBMA,39RP059MEQU8CKDXZMEEOI83RMJBMA,338054,338054,2,0.04,"""",null,null,"<div class = fixationbox><div class = fixation>+</div></div>","""","""","""","""","""","""","""","""","2021-12-31 04:16:33",75.164.8.93,"Mozilla/5.0 (Windows NT 10.0; Win64; x64) AppleWebKit/537.36 (KHTML, like Gecko) Chrome/96.0.4664.110 Safari/537.36",WebKit,Chrome,96.0.4664.110,Windows,10.0,ac0f2dffeffaa78d35a552e03d03f0a8
23,2,"""",test_procedure,stim_test,canvas-button-response,147,451108,0.0-11.0-0.1-1.35,3PKVGQTFJQLSZOM7OKJDU84QFXXYRA,A1YVMDRR9W1LZ1,39RP059MEQU8CKDXZMEEOI83RMJBMA,M0R94,M0R94,39RP059MEQU8CKDXZMEEOI83RMJBMA,39RP059MEQU8CKDXZMEEOI83RMJBMA,338054,338054,2,0.04,"""",1047.0999999046326,0,stim1,1,Clockwise,false,"""",0.01,60,"""","""","2021-12-31 04:16:33",75.164.8.93,"Mozilla/5.0 (Windows NT 10.0; Win64; x64) AppleWebKit/537.36 (KHTML, like Gecko) Chrome/96.0.4664.110 Safari/537.36",WebKit,Chrome,96.0.4664.110,Windows,10.0,ac0f2dffeffaa78d35a552e03d03f0a8
23,2,"""",test_procedure,confidence_rating,html-slider-response,148,452449,0.0-11.0-0.1-2.35,3PKVGQTFJQLSZOM7OKJDU84QFXXYRA,A1YVMDRR9W1LZ1,39RP059MEQU8CKDXZMEEOI83RMJBMA,M0R94,M0R94,39RP059MEQU8CKDXZMEEOI83RMJBMA,39RP059MEQU8CKDXZMEEOI83RMJBMA,338054,338054,2,0.04,"""",1340.1000001430511,74,"<div id=""message-div""><p>How confident are you that your clockwise/counter-clockwise response just now was accurate? Please rate your confidence on the slider bar below.</p></div>","""","""","""",50,"""","""","""",74,"2021-12-31 04:16:33",75.164.8.93,"Mozilla/5.0 (Windows NT 10.0; Win64; x64) AppleWebKit/537.36 (KHTML, like Gecko) Chrome/96.0.4664.110 Safari/537.36",WebKit,Chrome,96.0.4664.110,Windows,10.0,ac0f2dffeffaa78d35a552e03d03f0a8
23,2,"""",test_procedure,fixation,html-keyboard-response,149,452950,0.0-11.0-0.1-0.36,3PKVGQTFJQLSZOM7OKJDU84QFXXYRA,A1YVMDRR9W1LZ1,39RP059MEQU8CKDXZMEEOI83RMJBMA,M0R94,M0R94,39RP059MEQU8CKDXZMEEOI83RMJBMA,39RP059MEQU8CKDXZMEEOI83RMJBMA,338054,338054,2,0.04,"""",null,null,"<div class = fixationbox><div class = fixation>+</div></div>","""","""","""","""","""","""","""","""","2021-12-31 04:16:33",75.164.8.93,"Mozilla/5.0 (Windows NT 10.0; Win64; x64) AppleWebKit/537.36 (KHTML, like Gecko) Chrome/96.0.4664.110 Safari/537.36",WebKit,Chrome,96.0.4664.110,Windows,10.0,ac0f2dffeffaa78d35a552e03d03f0a8
23,2,"""",test_procedure,stim_test,canvas-button-response,150,454120,0.0-11.0-0.1-1.36,3PKVGQTFJQLSZOM7OKJDU84QFXXYRA,A1YVMDRR9W1LZ1,39RP059MEQU8CKDXZMEEOI83RMJBMA,M0R94,M0R94,39RP059MEQU8CKDXZMEEOI83RMJBMA,39RP059MEQU8CKDXZMEEOI83RMJBMA,338054,338054,2,0.04,"""",1145.7000000476837,0,stim4,0,Counter-clockwise,true,"""",0.3,120,"""","""","2021-12-31 04:16:33",75.164.8.93,"Mozilla/5.0 (Windows NT 10.0; Win64; x64) AppleWebKit/537.36 (KHTML, like Gecko) Chrome/96.0.4664.110 Safari/537.36",WebKit,Chrome,96.0.4664.110,Windows,10.0,ac0f2dffeffaa78d35a552e03d03f0a8
23,2,"""",test_procedure,confidence_rating,html-slider-response,151,455761,0.0-11.0-0.1-2.36,3PKVGQTFJQLSZOM7OKJDU84QFXXYRA,A1YVMDRR9W1LZ1,39RP059MEQU8CKDXZMEEOI83RMJBMA,M0R94,M0R94,39RP059MEQU8CKDXZMEEOI83RMJBMA,39RP059MEQU8CKDXZMEEOI83RMJBMA,338054,338054,2,0.04,"""",1640.2000000476837,65,"<div id=""message-div""><p>How confident are you that your clockwise/counter-clockwise response just now was accurate? Please rate your confidence on the slider bar below.</p></div>","""","""","""",50,"""","""","""",65,"2021-12-31 04:16:33",75.164.8.93,"Mozilla/5.0 (Windows NT 10.0; Win64; x64) AppleWebKit/537.36 (KHTML, like Gecko) Chrome/96.0.4664.110 Safari/537.36",WebKit,Chrome,96.0.4664.110,Windows,10.0,ac0f2dffeffaa78d35a552e03d03f0a8
23,2,"""",test_procedure,fixation,html-keyboard-response,152,456263,0.0-11.0-0.1-0.37,3PKVGQTFJQLSZOM7OKJDU84QFXXYRA,A1YVMDRR9W1LZ1,39RP059MEQU8CKDXZMEEOI83RMJBMA,M0R94,M0R94,39RP059MEQU8CKDXZMEEOI83RMJBMA,39RP059MEQU8CKDXZMEEOI83RMJBMA,338054,338054,2,0.04,"""",null,null,"<div class = fixationbox><div class = fixation>+</div></div>","""","""","""","""","""","""","""","""","2021-12-31 04:16:33",75.164.8.93,"Mozilla/5.0 (Windows NT 10.0; Win64; x64) AppleWebKit/537.36 (KHTML, like Gecko) Chrome/96.0.4664.110 Safari/537.36",WebKit,Chrome,96.0.4664.110,Windows,10.0,ac0f2dffeffaa78d35a552e03d03f0a8
23,2,"""",test_procedure,stim_test,canvas-button-response,153,457486,0.0-11.0-0.1-1.37,3PKVGQTFJQLSZOM7OKJDU84QFXXYRA,A1YVMDRR9W1LZ1,39RP059MEQU8CKDXZMEEOI83RMJBMA,M0R94,M0R94,39RP059MEQU8CKDXZMEEOI83RMJBMA,39RP059MEQU8CKDXZMEEOI83RMJBMA,338054,338054,2,0.04,"""",1195.2000000476837,0,stim1,1,Clockwise,false,"""",0.01,60,"""","""","2021-12-31 04:16:33",75.164.8.93,"Mozilla/5.0 (Windows NT 10.0; Win64; x64) AppleWebKit/537.36 (KHTML, like Gecko) Chrome/96.0.4664.110 Safari/537.36",WebKit,Chrome,96.0.4664.110,Windows,10.0,ac0f2dffeffaa78d35a552e03d03f0a8
23,2,"""",test_procedure,confidence_rating,html-slider-response,154,459551,0.0-11.0-0.1-2.37,3PKVGQTFJQLSZOM7OKJDU84QFXXYRA,A1YVMDRR9W1LZ1,39RP059MEQU8CKDXZMEEOI83RMJBMA,M0R94,M0R94,39RP059MEQU8CKDXZMEEOI83RMJBMA,39RP059MEQU8CKDXZMEEOI83RMJBMA,338054,338054,2,0.04,"""",2064.2999999523163,59,"<div id=""message-div""><p>How confident are you that your clockwise/counter-clockwise response just now was accurate? Please rate your confidence on the slider bar below.</p></div>","""","""","""",50,"""","""","""",59,"2021-12-31 04:16:33",75.164.8.93,"Mozilla/5.0 (Windows NT 10.0; Win64; x64) AppleWebKit/537.36 (KHTML, like Gecko) Chrome/96.0.4664.110 Safari/537.36",WebKit,Chrome,96.0.4664.110,Windows,10.0,ac0f2dffeffaa78d35a552e03d03f0a8
23,2,"""",test_procedure,fixation,html-keyboard-response,155,460052,0.0-11.0-0.1-0.38,3PKVGQTFJQLSZOM7OKJDU84QFXXYRA,A1YVMDRR9W1LZ1,39RP059MEQU8CKDXZMEEOI83RMJBMA,M0R94,M0R94,39RP059MEQU8CKDXZMEEOI83RMJBMA,39RP059MEQU8CKDXZMEEOI83RMJBMA,338054,338054,2,0.04,"""",null,null,"<div class = fixationbox><div class = fixation>+</div></div>","""","""","""","""","""","""","""","""","2021-12-31 04:16:33",75.164.8.93,"Mozilla/5.0 (Windows NT 10.0; Win64; x64) AppleWebKit/537.36 (KHTML, like Gecko) Chrome/96.0.4664.110 Safari/537.36",WebKit,Chrome,96.0.4664.110,Windows,10.0,ac0f2dffeffaa78d35a552e03d03f0a8
23,2,"""",test_procedure,stim_test,canvas-button-response,156,461315,0.0-11.0-0.1-1.38,3PKVGQTFJQLSZOM7OKJDU84QFXXYRA,A1YVMDRR9W1LZ1,39RP059MEQU8CKDXZMEEOI83RMJBMA,M0R94,M0R94,39RP059MEQU8CKDXZMEEOI83RMJBMA,39RP059MEQU8CKDXZMEEOI83RMJBMA,338054,338054,2,0.04,"""",1239.3999998569489,1,stim3,1,Clockwise,true,"""",0.3,60,"""","""","2021-12-31 04:16:33",75.164.8.93,"Mozilla/5.0 (Windows NT 10.0; Win64; x64) AppleWebKit/537.36 (KHTML, like Gecko) Chrome/96.0.4664.110 Safari/537.36",WebKit,Chrome,96.0.4664.110,Windows,10.0,ac0f2dffeffaa78d35a552e03d03f0a8
