run_id,condition,success,exp_stage,trial_id,trial_type,trial_index,time_elapsed,internal_node_id,hitId,workerId,assignmentId,a,tp_a,b,tp_b,c,tp_c,conditionmyown,cen_signal_contrast_stim,view_history,rt,response,stimulus,correct_response,correct_response_in_clockwise_or_counterclockwise,correct,slider_start,ctx_signal_contrast,cen_angle_in_degree,cen_signal_contrast_catchStim,confidence,recorded_at,ip,user_agent,device,browser,browser_version,platform,platform_version,source_code_version
17,2,true,pre-exp,fullscreen_starts,fullscreen,0,50520,0.0-0.0,3SD15I2WEBVYX2RZ7BNPTJHHA9P63F,A1FP3SH704X01V,3QHK8ZVMIVJO62VCZADZO5TERHTBL8,M8HQ4,M8HQ4,3QHK8ZVMIVJO62VCZADZO5TERHTBL8,3QHK8ZVMIVJO62VCZADZO5TERHTBL8,338054,338054,2,0.04,"""","""","""","""","""","""","""","""","""","""","""","""","2021-12-31 03:39:30",24.4.30.215,"Mozilla/5.0 (Windows NT 10.0; Win64; x64) AppleWebKit/537.36 (KHTML, like Gecko) Chrome/96.0.4664.110 Safari/537.36 Edg/96.0.1054.62",WebKit,Edge,96.0.1054.62,Windows,10.0,ac0f2dffeffaa78d35a552e03d03f0a8
17,2,"""",pre-exp,instructionspage1,instructions,1,52184,0.0-1.0-0.0,3SD15I2WEBVYX2RZ7BNPTJHHA9P63F,A1FP3SH704X01V,3QHK8ZVMIVJO62VCZADZO5TERHTBL8,M8HQ4,M8HQ4,3QHK8ZVMIVJO62VCZADZO5TERHTBL8,3QHK8ZVMIVJO62VCZADZO5TERHTBL8,338054,338054,2,0.04,"[{""page_index"":0,""viewing_time"":1661.2000000476837}]",1661.4000000953674,"""","""","""","""","""","""","""","""","""","""","2021-12-31 03:39:30",24.4.30.215,"Mozilla/5.0 (Windows NT 10.0; Win64; x64) AppleWebKit/537.36 (KHTML, like Gecko) Chrome/96.0.4664.110 Safari/537.36 Edg/96.0.1054.62",WebKit,Edge,96.0.1054.62,Windows,10.0,ac0f2dffeffaa78d35a552e03d03f0a8
17,2,"""",pre-exp,instructions_block2,canvas-button-response,2,69646,0.0-2.0-0.0-0.0,3SD15I2WEBVYX2RZ7BNPTJHHA9P63F,A1FP3SH704X01V,3QHK8ZVMIVJO62VCZADZO5TERHTBL8,M8HQ4,M8HQ4,3QHK8ZVMIVJO62VCZADZO5TERHTBL8,3QHK8ZVMIVJO62VCZADZO5TERHTBL8,338054,338054,2,0.04,"""",17356.60000014305,1,instructionStim1,1,Clockwise,true,"""","""","""","""","""","2021-12-31 03:39:30",24.4.30.215,"Mozilla/5.0 (Windows NT 10.0; Win64; x64) AppleWebKit/537.36 (KHTML, like Gecko) Chrome/96.0.4664.110 Safari/537.36 Edg/96.0.1054.62",WebKit,Edge,96.0.1054.62,Windows,10.0,ac0f2dffeffaa78d35a552e03d03f0a8
17,2,"""",pre-exp,instructions_block3,canvas-button-response,3,72109,0.0-3.0-0.0-0.0,3SD15I2WEBVYX2RZ7BNPTJHHA9P63F,A1FP3SH704X01V,3QHK8ZVMIVJO62VCZADZO5TERHTBL8,M8HQ4,M8HQ4,3QHK8ZVMIVJO62VCZADZO5TERHTBL8,3QHK8ZVMIVJO62VCZADZO5TERHTBL8,338054,338054,2,0.04,"""",2406.9000000953674,0,instructionStim2,0,Counter-clockwise,true,"""","""","""","""","""","2021-12-31 03:39:30",24.4.30.215,"Mozilla/5.0 (Windows NT 10.0; Win64; x64) AppleWebKit/537.36 (KHTML, like Gecko) Chrome/96.0.4664.110 Safari/537.36 Edg/96.0.1054.62",WebKit,Edge,96.0.1054.62,Windows,10.0,ac0f2dffeffaa78d35a552e03d03f0a8
17,2,"""",pre-exp,instructions_block4,html-slider-response,4,82799,0.0-4.0,3SD15I2WEBVYX2RZ7BNPTJHHA9P63F,A1FP3SH704X01V,3QHK8ZVMIVJO62VCZADZO5TERHTBL8,M8HQ4,M8HQ4,3QHK8ZVMIVJO62VCZADZO5TERHTBL8,3QHK8ZVMIVJO62VCZADZO5TERHTBL8,338054,338054,2,0.04,"""",10688.100000143051,100,"<div id=""message-div""><p>After you have made your clockwise/counter-clockwise choice, <br>you will be asked to rate how confident you are that you were correct in your clockwise/counter-clockwise choice using a slide bar.<br>Please try to use the entire range of the slider bar.<br>For example, feel free to move the slider to the leftmost location if you are extremely uncertain about your choice, and the rightmost location if you are extremely certain.</p></div>","""","""","""",50,"""","""","""","""","2021-12-31 03:39:30",24.4.30.215,"Mozilla/5.0 (Windows NT 10.0; Win64; x64) AppleWebKit/537.36 (KHTML, like Gecko) Chrome/96.0.4664.110 Safari/537.36 Edg/96.0.1054.62",WebKit,Edge,96.0.1054.62,Windows,10.0,ac0f2dffeffaa78d35a552e03d03f0a8
17,2,"""",pre-exp,instructionspage5,instructions,5,89504,0.0-5.0-0.0,3SD15I2WEBVYX2RZ7BNPTJHHA9P63F,A1FP3SH704X01V,3QHK8ZVMIVJO62VCZADZO5TERHTBL8,M8HQ4,M8HQ4,3QHK8ZVMIVJO62VCZADZO5TERHTBL8,3QHK8ZVMIVJO62VCZADZO5TERHTBL8,338054,338054,2,0.04,"[{""page_index"":0,""viewing_time"":6702.799999952316}]",6703,"""","""","""","""","""","""","""","""","""","""","2021-12-31 03:39:30",24.4.30.215,"Mozilla/5.0 (Windows NT 10.0; Win64; x64) AppleWebKit/537.36 (KHTML, like Gecko) Chrome/96.0.4664.110 Safari/537.36 Edg/96.0.1054.62",WebKit,Edge,96.0.1054.62,Windows,10.0,ac0f2dffeffaa78d35a552e03d03f0a8
17,2,"""",pre-exp,instructionspage6,instructions,6,90439,0.0-6.0-0.0,3SD15I2WEBVYX2RZ7BNPTJHHA9P63F,A1FP3SH704X01V,3QHK8ZVMIVJO62VCZADZO5TERHTBL8,M8HQ4,M8HQ4,3QHK8ZVMIVJO62VCZADZO5TERHTBL8,3QHK8ZVMIVJO62VCZADZO5TERHTBL8,338054,338054,2,0.04,"[{""page_index"":0,""viewing_time"":934.3999998569489}]",934.5999999046326,"""","""","""","""","""","""","""","""","""","""","2021-12-31 03:39:30",24.4.30.215,"Mozilla/5.0 (Windows NT 10.0; Win64; x64) AppleWebKit/537.36 (KHTML, like Gecko) Chrome/96.0.4664.110 Safari/537.36 Edg/96.0.1054.62",WebKit,Edge,96.0.1054.62,Windows,10.0,ac0f2dffeffaa78d35a552e03d03f0a8
17,2,"""",pre-exp,instructionspage7,instructions,7,93128,0.0-7.0-0.0,3SD15I2WEBVYX2RZ7BNPTJHHA9P63F,A1FP3SH704X01V,3QHK8ZVMIVJO62VCZADZO5TERHTBL8,M8HQ4,M8HQ4,3QHK8ZVMIVJO62VCZADZO5TERHTBL8,3QHK8ZVMIVJO62VCZADZO5TERHTBL8,338054,338054,2,0.04,"[{""page_index"":0,""viewing_time"":2686.7000000476837}]",2686.9000000953674,"""","""","""","""","""","""","""","""","""","""","2021-12-31 03:39:30",24.4.30.215,"Mozilla/5.0 (Windows NT 10.0; Win64; x64) AppleWebKit/537.36 (KHTML, like Gecko) Chrome/96.0.4664.110 Safari/537.36 Edg/96.0.1054.62",WebKit,Edge,96.0.1054.62,Windows,10.0,ac0f2dffeffaa78d35a552e03d03f0a8
17,2,"""",pre-exp,repeat_instructions_conditionalpage7,html-button-response,8,93816,0.0-7.0-1.0-0.0,3SD15I2WEBVYX2RZ7BNPTJHHA9P63F,A1FP3SH704X01V,3QHK8ZVMIVJO62VCZADZO5TERHTBL8,M8HQ4,M8HQ4,3QHK8ZVMIVJO62VCZADZO5TERHTBL8,3QHK8ZVMIVJO62VCZADZO5TERHTBL8,338054,338054,2,0.04,"""",687.1000001430511,0,"<div id=""message-div""><p>Please read this carefully. The instructions will be shown again now.</p><p>Click the ""Continue"" button to continue.</p></div>","""","""","""","""","""","""","""","""","2021-12-31 03:39:30",24.4.30.215,"Mozilla/5.0 (Windows NT 10.0; Win64; x64) AppleWebKit/537.36 (KHTML, like Gecko) Chrome/96.0.4664.110 Safari/537.36 Edg/96.0.1054.62",WebKit,Edge,96.0.1054.62,Windows,10.0,ac0f2dffeffaa78d35a552e03d03f0a8
17,2,"""",pre-exp,instructionspage7,instructions,9,96937,0.0-7.1-0.1,3SD15I2WEBVYX2RZ7BNPTJHHA9P63F,A1FP3SH704X01V,3QHK8ZVMIVJO62VCZADZO5TERHTBL8,M8HQ4,M8HQ4,3QHK8ZVMIVJO62VCZADZO5TERHTBL8,3QHK8ZVMIVJO62VCZADZO5TERHTBL8,338054,338054,2,0.04,"[{""page_index"":0,""viewing_time"":3119.2999999523163}]",3119.5999999046326,"""","""","""","""","""","""","""","""","""","""","2021-12-31 03:39:30",24.4.30.215,"Mozilla/5.0 (Windows NT 10.0; Win64; x64) AppleWebKit/537.36 (KHTML, like Gecko) Chrome/96.0.4664.110 Safari/537.36 Edg/96.0.1054.62",WebKit,Edge,96.0.1054.62,Windows,10.0,ac0f2dffeffaa78d35a552e03d03f0a8
17,2,"""",pre-exp,instructionspage8,instructions,10,98033,0.0-8.0-0.0,3SD15I2WEBVYX2RZ7BNPTJHHA9P63F,A1FP3SH704X01V,3QHK8ZVMIVJO62VCZADZO5TERHTBL8,M8HQ4,M8HQ4,3QHK8ZVMIVJO62VCZADZO5TERHTBL8,3QHK8ZVMIVJO62VCZADZO5TERHTBL8,338054,338054,2,0.04,"[{""page_index"":0,""viewing_time"":1094.0999999046326}]",1094.1999998092651,"""","""","""","""","""","""","""","""","""","""","2021-12-31 03:39:30",24.4.30.215,"Mozilla/5.0 (Windows NT 10.0; Win64; x64) AppleWebKit/537.36 (KHTML, like Gecko) Chrome/96.0.4664.110 Safari/537.36 Edg/96.0.1054.62",WebKit,Edge,96.0.1054.62,Windows,10.0,ac0f2dffeffaa78d35a552e03d03f0a8
17,2,"""",practice_procedure,fixation,html-keyboard-response,11,98535,0.0-9.0-0.0-0.0,3SD15I2WEBVYX2RZ7BNPTJHHA9P63F,A1FP3SH704X01V,3QHK8ZVMIVJO62VCZADZO5TERHTBL8,M8HQ4,M8HQ4,3QHK8ZVMIVJO62VCZADZO5TERHTBL8,3QHK8ZVMIVJO62VCZADZO5TERHTBL8,338054,338054,2,0.04,"""",null,null,"<div class = fixationbox><div class = fixation>+</div></div>","""","""","""","""","""","""","""","""","2021-12-31 03:39:30",24.4.30.215,"Mozilla/5.0 (Windows NT 10.0; Win64; x64) AppleWebKit/537.36 (KHTML, like Gecko) Chrome/96.0.4664.110 Safari/537.36 Edg/96.0.1054.62",WebKit,Edge,96.0.1054.62,Windows,10.0,ac0f2dffeffaa78d35a552e03d03f0a8
17,2,"""",practice_procedure,stim_practice,canvas-button-response,12,100096,0.0-9.0-0.0-1.0,3SD15I2WEBVYX2RZ7BNPTJHHA9P63F,A1FP3SH704X01V,3QHK8ZVMIVJO62VCZADZO5TERHTBL8,M8HQ4,M8HQ4,3QHK8ZVMIVJO62VCZADZO5TERHTBL8,3QHK8ZVMIVJO62VCZADZO5TERHTBL8,338054,338054,2,0.04,"""",1474.7999999523163,1,practiceStim1,1,Clockwise,true,"""",0.01,60,0.99,"""","2021-12-31 03:39:30",24.4.30.215,"Mozilla/5.0 (Windows NT 10.0; Win64; x64) AppleWebKit/537.36 (KHTML, like Gecko) Chrome/96.0.4664.110 Safari/537.36 Edg/96.0.1054.62",WebKit,Edge,96.0.1054.62,Windows,10.0,ac0f2dffeffaa78d35a552e03d03f0a8
17,2,"""",practice_procedure,confidence_rating,html-slider-response,13,102017,0.0-9.0-0.0-2.0,3SD15I2WEBVYX2RZ7BNPTJHHA9P63F,A1FP3SH704X01V,3QHK8ZVMIVJO62VCZADZO5TERHTBL8,M8HQ4,M8HQ4,3QHK8ZVMIVJO62VCZADZO5TERHTBL8,3QHK8ZVMIVJO62VCZADZO5TERHTBL8,338054,338054,2,0.04,"""",1919.5,56,"<div id=""message-div""><p>How confident are you that your clockwise/counter-clockwise response just now was accurate? Please rate your confidence on the slider bar below.</p></div>","""","""","""",50,"""","""","""",56,"2021-12-31 03:39:30",24.4.30.215,"Mozilla/5.0 (Windows NT 10.0; Win64; x64) AppleWebKit/537.36 (KHTML, like Gecko) Chrome/96.0.4664.110 Safari/537.36 Edg/96.0.1054.62",WebKit,Edge,96.0.1054.62,Windows,10.0,ac0f2dffeffaa78d35a552e03d03f0a8
17,2,"""",practice_procedure,fixation,html-keyboard-response,14,102519,0.0-9.0-0.0-0.1,3SD15I2WEBVYX2RZ7BNPTJHHA9P63F,A1FP3SH704X01V,3QHK8ZVMIVJO62VCZADZO5TERHTBL8,M8HQ4,M8HQ4,3QHK8ZVMIVJO62VCZADZO5TERHTBL8,3QHK8ZVMIVJO62VCZADZO5TERHTBL8,338054,338054,2,0.04,"""",null,null,"<div class = fixationbox><div class = fixation>+</div></div>","""","""","""","""","""","""","""","""","2021-12-31 03:39:30",24.4.30.215,"Mozilla/5.0 (Windows NT 10.0; Win64; x64) AppleWebKit/537.36 (KHTML, like Gecko) Chrome/96.0.4664.110 Safari/537.36 Edg/96.0.1054.62",WebKit,Edge,96.0.1054.62,Windows,10.0,ac0f2dffeffaa78d35a552e03d03f0a8
17,2,"""",practice_procedure,stim_practice,canvas-button-response,15,103858,0.0-9.0-0.0-1.1,3SD15I2WEBVYX2RZ7BNPTJHHA9P63F,A1FP3SH704X01V,3QHK8ZVMIVJO62VCZADZO5TERHTBL8,M8HQ4,M8HQ4,3QHK8ZVMIVJO62VCZADZO5TERHTBL8,3QHK8ZVMIVJO62VCZADZO5TERHTBL8,338054,338054,2,0.04,"""",1285.1999998092651,0,practiceStim4,0,Counter-clockwise,true,"""",0.3,120,0.99,"""","2021-12-31 03:39:30",24.4.30.215,"Mozilla/5.0 (Windows NT 10.0; Win64; x64) AppleWebKit/537.36 (KHTML, like Gecko) Chrome/96.0.4664.110 Safari/537.36 Edg/96.0.1054.62",WebKit,Edge,96.0.1054.62,Windows,10.0,ac0f2dffeffaa78d35a552e03d03f0a8
17,2,"""",practice_procedure,confidence_rating,html-slider-response,16,105865,0.0-9.0-0.0-2.1,3SD15I2WEBVYX2RZ7BNPTJHHA9P63F,A1FP3SH704X01V,3QHK8ZVMIVJO62VCZADZO5TERHTBL8,M8HQ4,M8HQ4,3QHK8ZVMIVJO62VCZADZO5TERHTBL8,3QHK8ZVMIVJO62VCZADZO5TERHTBL8,338054,338054,2,0.04,"""",2006.7999999523163,75,"<div id=""message-div""><p>How confident are you that your clockwise/counter-clockwise response just now was accurate? Please rate your confidence on the slider bar below.</p></div>","""","""","""",50,"""","""","""",75,"2021-12-31 03:39:30",24.4.30.215,"Mozilla/5.0 (Windows NT 10.0; Win64; x64) AppleWebKit/537.36 (KHTML, like Gecko) Chrome/96.0.4664.110 Safari/537.36 Edg/96.0.1054.62",WebKit,Edge,96.0.1054.62,Windows,10.0,ac0f2dffeffaa78d35a552e03d03f0a8
17,2,"""",practice_procedure,fixation,html-keyboard-response,17,106366,0.0-9.0-0.0-0.2,3SD15I2WEBVYX2RZ7BNPTJHHA9P63F,A1FP3SH704X01V,3QHK8ZVMIVJO62VCZADZO5TERHTBL8,M8HQ4,M8HQ4,3QHK8ZVMIVJO62VCZADZO5TERHTBL8,3QHK8ZVMIVJO62VCZADZO5TERHTBL8,338054,338054,2,0.04,"""",null,null,"<div class = fixationbox><div class = fixation>+</div></div>","""","""","""","""","""","""","""","""","2021-12-31 03:39:30",24.4.30.215,"Mozilla/5.0 (Windows NT 10.0; Win64; x64) AppleWebKit/537.36 (KHTML, like Gecko) Chrome/96.0.4664.110 Safari/537.36 Edg/96.0.1054.62",WebKit,Edge,96.0.1054.62,Windows,10.0,ac0f2dffeffaa78d35a552e03d03f0a8
17,2,"""",practice_procedure,stim_practice,canvas-button-response,18,107410,0.0-9.0-0.0-1.2,3SD15I2WEBVYX2RZ7BNPTJHHA9P63F,A1FP3SH704X01V,3QHK8ZVMIVJO62VCZADZO5TERHTBL8,M8HQ4,M8HQ4,3QHK8ZVMIVJO62VCZADZO5TERHTBL8,3QHK8ZVMIVJO62VCZADZO5TERHTBL8,338054,338054,2,0.04,"""",994.0999999046326,0,practiceStim2,0,Counter-clockwise,true,"""",0.01,120,0.99,"""","2021-12-31 03:39:30",24.4.30.215,"Mozilla/5.0 (Windows NT 10.0; Win64; x64) AppleWebKit/537.36 (KHTML, like Gecko) Chrome/96.0.4664.110 Safari/537.36 Edg/96.0.1054.62",WebKit,Edge,96.0.1054.62,Windows,10.0,ac0f2dffeffaa78d35a552e03d03f0a8
17,2,"""",practice_procedure,confidence_rating,html-slider-response,19,108953,0.0-9.0-0.0-2.2,3SD15I2WEBVYX2RZ7BNPTJHHA9P63F,A1FP3SH704X01V,3QHK8ZVMIVJO62VCZADZO5TERHTBL8,M8HQ4,M8HQ4,3QHK8ZVMIVJO62VCZADZO5TERHTBL8,3QHK8ZVMIVJO62VCZADZO5TERHTBL8,338054,338054,2,0.04,"""",1542.7000000476837,76,"<div id=""message-div""><p>How confident are you that your clockwise/counter-clockwise response just now was accurate? Please rate your confidence on the slider bar below.</p></div>","""","""","""",50,"""","""","""",76,"2021-12-31 03:39:30",24.4.30.215,"Mozilla/5.0 (Windows NT 10.0; Win64; x64) AppleWebKit/537.36 (KHTML, like Gecko) Chrome/96.0.4664.110 Safari/537.36 Edg/96.0.1054.62",WebKit,Edge,96.0.1054.62,Windows,10.0,ac0f2dffeffaa78d35a552e03d03f0a8
17,2,"""",practice_procedure,fixation,html-keyboard-response,20,109458,0.0-9.0-0.0-0.3,3SD15I2WEBVYX2RZ7BNPTJHHA9P63F,A1FP3SH704X01V,3QHK8ZVMIVJO62VCZADZO5TERHTBL8,M8HQ4,M8HQ4,3QHK8ZVMIVJO62VCZADZO5TERHTBL8,3QHK8ZVMIVJO62VCZADZO5TERHTBL8,338054,338054,2,0.04,"""",null,null,"<div class = fixationbox><div class = fixation>+</div></div>","""","""","""","""","""","""","""","""","2021-12-31 03:39:30",24.4.30.215,"Mozilla/5.0 (Windows NT 10.0; Win64; x64) AppleWebKit/537.36 (KHTML, like Gecko) Chrome/96.0.4664.110 Safari/537.36 Edg/96.0.1054.62",WebKit,Edge,96.0.1054.62,Windows,10.0,ac0f2dffeffaa78d35a552e03d03f0a8
17,2,"""",practice_procedure,stim_practice,canvas-button-response,21,110354,0.0-9.0-0.0-1.3,3SD15I2WEBVYX2RZ7BNPTJHHA9P63F,A1FP3SH704X01V,3QHK8ZVMIVJO62VCZADZO5TERHTBL8,M8HQ4,M8HQ4,3QHK8ZVMIVJO62VCZADZO5TERHTBL8,3QHK8ZVMIVJO62VCZADZO5TERHTBL8,338054,338054,2,0.04,"""",866.7000000476837,1,practiceStim3,1,Clockwise,true,"""",0.3,60,0.99,"""","2021-12-31 03:39:30",24.4.30.215,"Mozilla/5.0 (Windows NT 10.0; Win64; x64) AppleWebKit/537.36 (KHTML, like Gecko) Chrome/96.0.4664.110 Safari/537.36 Edg/96.0.1054.62",WebKit,Edge,96.0.1054.62,Windows,10.0,ac0f2dffeffaa78d35a552e03d03f0a8
17,2,"""",practice_procedure,confidence_rating,html-slider-response,22,111810,0.0-9.0-0.0-2.3,3SD15I2WEBVYX2RZ7BNPTJHHA9P63F,A1FP3SH704X01V,3QHK8ZVMIVJO62VCZADZO5TERHTBL8,M8HQ4,M8HQ4,3QHK8ZVMIVJO62VCZADZO5TERHTBL8,3QHK8ZVMIVJO62VCZADZO5TERHTBL8,338054,338054,2,0.04,"""",1454.7000000476837,78,"<div id=""message-div""><p>How confident are you that your clockwise/counter-clockwise response just now was accurate? Please rate your confidence on the slider bar below.</p></div>","""","""","""",50,"""","""","""",78,"2021-12-31 03:39:30",24.4.30.215,"Mozilla/5.0 (Windows NT 10.0; Win64; x64) AppleWebKit/537.36 (KHTML, like Gecko) Chrome/96.0.4664.110 Safari/537.36 Edg/96.0.1054.62",WebKit,Edge,96.0.1054.62,Windows,10.0,ac0f2dffeffaa78d35a552e03d03f0a8
17,2,"""",practice_procedure,fixation,html-keyboard-response,23,112311,0.0-9.0-0.0-0.4,3SD15I2WEBVYX2RZ7BNPTJHHA9P63F,A1FP3SH704X01V,3QHK8ZVMIVJO62VCZADZO5TERHTBL8,M8HQ4,M8HQ4,3QHK8ZVMIVJO62VCZADZO5TERHTBL8,3QHK8ZVMIVJO62VCZADZO5TERHTBL8,338054,338054,2,0.04,"""",null,null,"<div class = fixationbox><div class = fixation>+</div></div>","""","""","""","""","""","""","""","""","2021-12-31 03:39:30",24.4.30.215,"Mozilla/5.0 (Windows NT 10.0; Win64; x64) AppleWebKit/537.36 (KHTML, like Gecko) Chrome/96.0.4664.110 Safari/537.36 Edg/96.0.1054.62",WebKit,Edge,96.0.1054.62,Windows,10.0,ac0f2dffeffaa78d35a552e03d03f0a8
17,2,"""",practice_procedure,stim_practice,canvas-button-response,24,113491,0.0-9.0-0.0-1.4,3SD15I2WEBVYX2RZ7BNPTJHHA9P63F,A1FP3SH704X01V,3QHK8ZVMIVJO62VCZADZO5TERHTBL8,M8HQ4,M8HQ4,3QHK8ZVMIVJO62VCZADZO5TERHTBL8,3QHK8ZVMIVJO62VCZADZO5TERHTBL8,338054,338054,2,0.04,"""",1136.0999999046326,0,practiceStim2,0,Counter-clockwise,true,"""",0.01,120,0.99,"""","2021-12-31 03:39:30",24.4.30.215,"Mozilla/5.0 (Windows NT 10.0; Win64; x64) AppleWebKit/537.36 (KHTML, like Gecko) Chrome/96.0.4664.110 Safari/537.36 Edg/96.0.1054.62",WebKit,Edge,96.0.1054.62,Windows,10.0,ac0f2dffeffaa78d35a552e03d03f0a8
17,2,"""",practice_procedure,confidence_rating,html-slider-response,25,115763,0.0-9.0-0.0-2.4,3SD15I2WEBVYX2RZ7BNPTJHHA9P63F,A1FP3SH704X01V,3QHK8ZVMIVJO62VCZADZO5TERHTBL8,M8HQ4,M8HQ4,3QHK8ZVMIVJO62VCZADZO5TERHTBL8,3QHK8ZVMIVJO62VCZADZO5TERHTBL8,338054,338054,2,0.04,"""",2270.7999999523163,42,"<div id=""message-div""><p>How confident are you that your clockwise/counter-clockwise response just now was accurate? Please rate your confidence on the slider bar below.</p></div>","""","""","""",50,"""","""","""",42,"2021-12-31 03:39:30",24.4.30.215,"Mozilla/5.0 (Windows NT 10.0; Win64; x64) AppleWebKit/537.36 (KHTML, like Gecko) Chrome/96.0.4664.110 Safari/537.36 Edg/96.0.1054.62",WebKit,Edge,96.0.1054.62,Windows,10.0,ac0f2dffeffaa78d35a552e03d03f0a8
17,2,"""",practice_procedure,fixation,html-keyboard-response,26,116265,0.0-9.0-0.0-0.5,3SD15I2WEBVYX2RZ7BNPTJHHA9P63F,A1FP3SH704X01V,3QHK8ZVMIVJO62VCZADZO5TERHTBL8,M8HQ4,M8HQ4,3QHK8ZVMIVJO62VCZADZO5TERHTBL8,3QHK8ZVMIVJO62VCZADZO5TERHTBL8,338054,338054,2,0.04,"""",null,null,"<div class = fixationbox><div class = fixation>+</div></div>","""","""","""","""","""","""","""","""","2021-12-31 03:39:30",24.4.30.215,"Mozilla/5.0 (Windows NT 10.0; Win64; x64) AppleWebKit/537.36 (KHTML, like Gecko) Chrome/96.0.4664.110 Safari/537.36 Edg/96.0.1054.62",WebKit,Edge,96.0.1054.62,Windows,10.0,ac0f2dffeffaa78d35a552e03d03f0a8
17,2,"""",practice_procedure,stim_practice,canvas-button-response,27,117219,0.0-9.0-0.0-1.5,3SD15I2WEBVYX2RZ7BNPTJHHA9P63F,A1FP3SH704X01V,3QHK8ZVMIVJO62VCZADZO5TERHTBL8,M8HQ4,M8HQ4,3QHK8ZVMIVJO62VCZADZO5TERHTBL8,3QHK8ZVMIVJO62VCZADZO5TERHTBL8,338054,338054,2,0.04,"""",905,1,practiceStim3,1,Clockwise,true,"""",0.3,60,0.99,"""","2021-12-31 03:39:30",24.4.30.215,"Mozilla/5.0 (Windows NT 10.0; Win64; x64) AppleWebKit/537.36 (KHTML, like Gecko) Chrome/96.0.4664.110 Safari/537.36 Edg/96.0.1054.62",WebKit,Edge,96.0.1054.62,Windows,10.0,ac0f2dffeffaa78d35a552e03d03f0a8
17,2,"""",practice_procedure,confidence_rating,html-slider-response,28,118979,0.0-9.0-0.0-2.5,3SD15I2WEBVYX2RZ7BNPTJHHA9P63F,A1FP3SH704X01V,3QHK8ZVMIVJO62VCZADZO5TERHTBL8,M8HQ4,M8HQ4,3QHK8ZVMIVJO62VCZADZO5TERHTBL8,3QHK8ZVMIVJO62VCZADZO5TERHTBL8,338054,338054,2,0.04,"""",1759,65,"<div id=""message-div""><p>How confident are you that your clockwise/counter-clockwise response just now was accurate? Please rate your confidence on the slider bar below.</p></div>","""","""","""",50,"""","""","""",65,"2021-12-31 03:39:30",24.4.30.215,"Mozilla/5.0 (Windows NT 10.0; Win64; x64) AppleWebKit/537.36 (KHTML, like Gecko) Chrome/96.0.4664.110 Safari/537.36 Edg/96.0.1054.62",WebKit,Edge,96.0.1054.62,Windows,10.0,ac0f2dffeffaa78d35a552e03d03f0a8
17,2,"""",practice_procedure,fixation,html-keyboard-response,29,119480,0.0-9.0-0.0-0.6,3SD15I2WEBVYX2RZ7BNPTJHHA9P63F,A1FP3SH704X01V,3QHK8ZVMIVJO62VCZADZO5TERHTBL8,M8HQ4,M8HQ4,3QHK8ZVMIVJO62VCZADZO5TERHTBL8,3QHK8ZVMIVJO62VCZADZO5TERHTBL8,338054,338054,2,0.04,"""",null,null,"<div class = fixationbox><div class = fixation>+</div></div>","""","""","""","""","""","""","""","""","2021-12-31 03:39:30",24.4.30.215,"Mozilla/5.0 (Windows NT 10.0; Win64; x64) AppleWebKit/537.36 (KHTML, like Gecko) Chrome/96.0.4664.110 Safari/537.36 Edg/96.0.1054.62",WebKit,Edge,96.0.1054.62,Windows,10.0,ac0f2dffeffaa78d35a552e03d03f0a8
17,2,"""",practice_procedure,stim_practice,canvas-button-response,30,120299,0.0-9.0-0.0-1.6,3SD15I2WEBVYX2RZ7BNPTJHHA9P63F,A1FP3SH704X01V,3QHK8ZVMIVJO62VCZADZO5TERHTBL8,M8HQ4,M8HQ4,3QHK8ZVMIVJO62VCZADZO5TERHTBL8,3QHK8ZVMIVJO62VCZADZO5TERHTBL8,338054,338054,2,0.04,"""",778.8000001907349,1,practiceStim1,1,Clockwise,true,"""",0.01,60,0.99,"""","2021-12-31 03:39:30",24.4.30.215,"Mozilla/5.0 (Windows NT 10.0; Win64; x64) AppleWebKit/537.36 (KHTML, like Gecko) Chrome/96.0.4664.110 Safari/537.36 Edg/96.0.1054.62",WebKit,Edge,96.0.1054.62,Windows,10.0,ac0f2dffeffaa78d35a552e03d03f0a8
17,2,"""",practice_procedure,confidence_rating,html-slider-response,31,121732,0.0-9.0-0.0-2.6,3SD15I2WEBVYX2RZ7BNPTJHHA9P63F,A1FP3SH704X01V,3QHK8ZVMIVJO62VCZADZO5TERHTBL8,M8HQ4,M8HQ4,3QHK8ZVMIVJO62VCZADZO5TERHTBL8,3QHK8ZVMIVJO62VCZADZO5TERHTBL8,338054,338054,2,0.04,"""",1431.5,68,"<div id=""message-div""><p>How confident are you that your clockwise/counter-clockwise response just now was accurate? Please rate your confidence on the slider bar below.</p></div>","""","""","""",50,"""","""","""",68,"2021-12-31 03:39:30",24.4.30.215,"Mozilla/5.0 (Windows NT 10.0; Win64; x64) AppleWebKit/537.36 (KHTML, like Gecko) Chrome/96.0.4664.110 Safari/537.36 Edg/96.0.1054.62",WebKit,Edge,96.0.1054.62,Windows,10.0,ac0f2dffeffaa78d35a552e03d03f0a8
17,2,"""",practice_procedure,fixation,html-keyboard-response,32,122235,0.0-9.0-0.0-0.7,3SD15I2WEBVYX2RZ7BNPTJHHA9P63F,A1FP3SH704X01V,3QHK8ZVMIVJO62VCZADZO5TERHTBL8,M8HQ4,M8HQ4,3QHK8ZVMIVJO62VCZADZO5TERHTBL8,3QHK8ZVMIVJO62VCZADZO5TERHTBL8,338054,338054,2,0.04,"""",null,null,"<div class = fixationbox><div class = fixation>+</div></div>","""","""","""","""","""","""","""","""","2021-12-31 03:39:30",24.4.30.215,"Mozilla/5.0 (Windows NT 10.0; Win64; x64) AppleWebKit/537.36 (KHTML, like Gecko) Chrome/96.0.4664.110 Safari/537.36 Edg/96.0.1054.62",WebKit,Edge,96.0.1054.62,Windows,10.0,ac0f2dffeffaa78d35a552e03d03f0a8
17,2,"""",practice_procedure,stim_practice,canvas-button-response,33,123100,0.0-9.0-0.0-1.7,3SD15I2WEBVYX2RZ7BNPTJHHA9P63F,A1FP3SH704X01V,3QHK8ZVMIVJO62VCZADZO5TERHTBL8,M8HQ4,M8HQ4,3QHK8ZVMIVJO62VCZADZO5TERHTBL8,3QHK8ZVMIVJO62VCZADZO5TERHTBL8,338054,338054,2,0.04,"""",815.7000000476837,1,practiceStim1,1,Clockwise,true,"""",0.01,60,0.99,"""","2021-12-31 03:39:30",24.4.30.215,"Mozilla/5.0 (Windows NT 10.0; Win64; x64) AppleWebKit/537.36 (KHTML, like Gecko) Chrome/96.0.4664.110 Safari/537.36 Edg/96.0.1054.62",WebKit,Edge,96.0.1054.62,Windows,10.0,ac0f2dffeffaa78d35a552e03d03f0a8
17,2,"""",practice_procedure,confidence_rating,html-slider-response,34,124747,0.0-9.0-0.0-2.7,3SD15I2WEBVYX2RZ7BNPTJHHA9P63F,A1FP3SH704X01V,3QHK8ZVMIVJO62VCZADZO5TERHTBL8,M8HQ4,M8HQ4,3QHK8ZVMIVJO62VCZADZO5TERHTBL8,3QHK8ZVMIVJO62VCZADZO5TERHTBL8,338054,338054,2,0.04,"""",1646.5,84,"<div id=""message-div""><p>How confident are you that your clockwise/counter-clockwise response just now was accurate? Please rate your confidence on the slider bar below.</p></div>","""","""","""",50,"""","""","""",84,"2021-12-31 03:39:30",24.4.30.215,"Mozilla/5.0 (Windows NT 10.0; Win64; x64) AppleWebKit/537.36 (KHTML, like Gecko) Chrome/96.0.4664.110 Safari/537.36 Edg/96.0.1054.62",WebKit,Edge,96.0.1054.62,Windows,10.0,ac0f2dffeffaa78d35a552e03d03f0a8
17,2,"""",practice_procedure,fixation,html-keyboard-response,35,125248,0.0-9.0-0.0-0.8,3SD15I2WEBVYX2RZ7BNPTJHHA9P63F,A1FP3SH704X01V,3QHK8ZVMIVJO62VCZADZO5TERHTBL8,M8HQ4,M8HQ4,3QHK8ZVMIVJO62VCZADZO5TERHTBL8,3QHK8ZVMIVJO62VCZADZO5TERHTBL8,338054,338054,2,0.04,"""",null,null,"<div class = fixationbox><div class = fixation>+</div></div>","""","""","""","""","""","""","""","""","2021-12-31 03:39:30",24.4.30.215,"Mozilla/5.0 (Windows NT 10.0; Win64; x64) AppleWebKit/537.36 (KHTML, like Gecko) Chrome/96.0.4664.110 Safari/537.36 Edg/96.0.1054.62",WebKit,Edge,96.0.1054.62,Windows,10.0,ac0f2dffeffaa78d35a552e03d03f0a8
17,2,"""",practice_procedure,stim_practice,canvas-button-response,36,126299,0.0-9.0-0.0-1.8,3SD15I2WEBVYX2RZ7BNPTJHHA9P63F,A1FP3SH704X01V,3QHK8ZVMIVJO62VCZADZO5TERHTBL8,M8HQ4,M8HQ4,3QHK8ZVMIVJO62VCZADZO5TERHTBL8,3QHK8ZVMIVJO62VCZADZO5TERHTBL8,338054,338054,2,0.04,"""",1024.0999999046326,1,practiceStim1,1,Clockwise,true,"""",0.01,60,0.99,"""","2021-12-31 03:39:30",24.4.30.215,"Mozilla/5.0 (Windows NT 10.0; Win64; x64) AppleWebKit/537.36 (KHTML, like Gecko) Chrome/96.0.4664.110 Safari/537.36 Edg/96.0.1054.62",WebKit,Edge,96.0.1054.62,Windows,10.0,ac0f2dffeffaa78d35a552e03d03f0a8
17,2,"""",practice_procedure,confidence_rating,html-slider-response,37,127861,0.0-9.0-0.0-2.8,3SD15I2WEBVYX2RZ7BNPTJHHA9P63F,A1FP3SH704X01V,3QHK8ZVMIVJO62VCZADZO5TERHTBL8,M8HQ4,M8HQ4,3QHK8ZVMIVJO62VCZADZO5TERHTBL8,3QHK8ZVMIVJO62VCZADZO5TERHTBL8,338054,338054,2,0.04,"""",1560.5,81,"<div id=""message-div""><p>How confident are you that your clockwise/counter-clockwise response just now was accurate? Please rate your confidence on the slider bar below.</p></div>","""","""","""",50,"""","""","""",81,"2021-12-31 03:39:30",24.4.30.215,"Mozilla/5.0 (Windows NT 10.0; Win64; x64) AppleWebKit/537.36 (KHTML, like Gecko) Chrome/96.0.4664.110 Safari/537.36 Edg/96.0.1054.62",WebKit,Edge,96.0.1054.62,Windows,10.0,ac0f2dffeffaa78d35a552e03d03f0a8
17,2,"""",practice_procedure,fixation,html-keyboard-response,38,128364,0.0-9.0-0.0-0.9,3SD15I2WEBVYX2RZ7BNPTJHHA9P63F,A1FP3SH704X01V,3QHK8ZVMIVJO62VCZADZO5TERHTBL8,M8HQ4,M8HQ4,3QHK8ZVMIVJO62VCZADZO5TERHTBL8,3QHK8ZVMIVJO62VCZADZO5TERHTBL8,338054,338054,2,0.04,"""",null,null,"<div class = fixationbox><div class = fixation>+</div></div>","""","""","""","""","""","""","""","""","2021-12-31 03:39:30",24.4.30.215,"Mozilla/5.0 (Windows NT 10.0; Win64; x64) AppleWebKit/537.36 (KHTML, like Gecko) Chrome/96.0.4664.110 Safari/537.36 Edg/96.0.1054.62",WebKit,Edge,96.0.1054.62,Windows,10.0,ac0f2dffeffaa78d35a552e03d03f0a8
17,2,"""",practice_procedure,stim_practice,canvas-button-response,39,129181,0.0-9.0-0.0-1.9,3SD15I2WEBVYX2RZ7BNPTJHHA9P63F,A1FP3SH704X01V,3QHK8ZVMIVJO62VCZADZO5TERHTBL8,M8HQ4,M8HQ4,3QHK8ZVMIVJO62VCZADZO5TERHTBL8,3QHK8ZVMIVJO62VCZADZO5TERHTBL8,338054,338054,2,0.04,"""",766.5999999046326,0,practiceStim4,0,Counter-clockwise,true,"""",0.3,120,0.99,"""","2021-12-31 03:39:30",24.4.30.215,"Mozilla/5.0 (Windows NT 10.0; Win64; x64) AppleWebKit/537.36 (KHTML, like Gecko) Chrome/96.0.4664.110 Safari/537.36 Edg/96.0.1054.62",WebKit,Edge,96.0.1054.62,Windows,10.0,ac0f2dffeffaa78d35a552e03d03f0a8
17,2,"""",practice_procedure,confidence_rating,html-slider-response,40,130437,0.0-9.0-0.0-2.9,3SD15I2WEBVYX2RZ7BNPTJHHA9P63F,A1FP3SH704X01V,3QHK8ZVMIVJO62VCZADZO5TERHTBL8,M8HQ4,M8HQ4,3QHK8ZVMIVJO62VCZADZO5TERHTBL8,3QHK8ZVMIVJO62VCZADZO5TERHTBL8,338054,338054,2,0.04,"""",1254.5999999046326,74,"<div id=""message-div""><p>How confident are you that your clockwise/counter-clockwise response just now was accurate? Please rate your confidence on the slider bar below.</p></div>","""","""","""",50,"""","""","""",74,"2021-12-31 03:39:30",24.4.30.215,"Mozilla/5.0 (Windows NT 10.0; Win64; x64) AppleWebKit/537.36 (KHTML, like Gecko) Chrome/96.0.4664.110 Safari/537.36 Edg/96.0.1054.62",WebKit,Edge,96.0.1054.62,Windows,10.0,ac0f2dffeffaa78d35a552e03d03f0a8
17,2,"""",pre-test,test_instruction,instructions,41,143538,0.0-10.0,3SD15I2WEBVYX2RZ7BNPTJHHA9P63F,A1FP3SH704X01V,3QHK8ZVMIVJO62VCZADZO5TERHTBL8,M8HQ4,M8HQ4,3QHK8ZVMIVJO62VCZADZO5TERHTBL8,3QHK8ZVMIVJO62VCZADZO5TERHTBL8,338054,338054,2,0.04,"[{""page_index"":0,""viewing_time"":13100.099999904633}]",13100.399999856949,"""","""","""","""","""","""","""","""","""","""","2021-12-31 03:39:30",24.4.30.215,"Mozilla/5.0 (Windows NT 10.0; Win64; x64) AppleWebKit/537.36 (KHTML, like Gecko) Chrome/96.0.4664.110 Safari/537.36 Edg/96.0.1054.62",WebKit,Edge,96.0.1054.62,Windows,10.0,ac0f2dffeffaa78d35a552e03d03f0a8
17,2,"""",test_procedure,fixation,html-keyboard-response,42,144042,0.0-11.0-0.0-0.0,3SD15I2WEBVYX2RZ7BNPTJHHA9P63F,A1FP3SH704X01V,3QHK8ZVMIVJO62VCZADZO5TERHTBL8,M8HQ4,M8HQ4,3QHK8ZVMIVJO62VCZADZO5TERHTBL8,3QHK8ZVMIVJO62VCZADZO5TERHTBL8,338054,338054,2,0.04,"""",null,null,"<div class = fixationbox><div class = fixation>+</div></div>","""","""","""","""","""","""","""","""","2021-12-31 03:39:30",24.4.30.215,"Mozilla/5.0 (Windows NT 10.0; Win64; x64) AppleWebKit/537.36 (KHTML, like Gecko) Chrome/96.0.4664.110 Safari/537.36 Edg/96.0.1054.62",WebKit,Edge,96.0.1054.62,Windows,10.0,ac0f2dffeffaa78d35a552e03d03f0a8
17,2,"""",test_procedure,stim_test,canvas-button-response,43,145554,0.0-11.0-0.0-1.0,3SD15I2WEBVYX2RZ7BNPTJHHA9P63F,A1FP3SH704X01V,3QHK8ZVMIVJO62VCZADZO5TERHTBL8,M8HQ4,M8HQ4,3QHK8ZVMIVJO62VCZADZO5TERHTBL8,3QHK8ZVMIVJO62VCZADZO5TERHTBL8,338054,338054,2,0.04,"""",1474.7999999523163,1,stim1,1,Clockwise,true,"""",0.01,60,"""","""","2021-12-31 03:39:30",24.4.30.215,"Mozilla/5.0 (Windows NT 10.0; Win64; x64) AppleWebKit/537.36 (KHTML, like Gecko) Chrome/96.0.4664.110 Safari/537.36 Edg/96.0.1054.62",WebKit,Edge,96.0.1054.62,Windows,10.0,ac0f2dffeffaa78d35a552e03d03f0a8
17,2,"""",test_procedure,confidence_rating,html-slider-response,44,147498,0.0-11.0-0.0-2.0,3SD15I2WEBVYX2RZ7BNPTJHHA9P63F,A1FP3SH704X01V,3QHK8ZVMIVJO62VCZADZO5TERHTBL8,M8HQ4,M8HQ4,3QHK8ZVMIVJO62VCZADZO5TERHTBL8,3QHK8ZVMIVJO62VCZADZO5TERHTBL8,338054,338054,2,0.04,"""",1942.5999999046326,6,"<div id=""message-div""><p>How confident are you that your clockwise/counter-clockwise response just now was accurate? Please rate your confidence on the slider bar below.</p></div>","""","""","""",50,"""","""","""",6,"2021-12-31 03:39:30",24.4.30.215,"Mozilla/5.0 (Windows NT 10.0; Win64; x64) AppleWebKit/537.36 (KHTML, like Gecko) Chrome/96.0.4664.110 Safari/537.36 Edg/96.0.1054.62",WebKit,Edge,96.0.1054.62,Windows,10.0,ac0f2dffeffaa78d35a552e03d03f0a8
17,2,"""",test_procedure,fixation,html-keyboard-response,45,148000,0.0-11.0-0.0-0.1,3SD15I2WEBVYX2RZ7BNPTJHHA9P63F,A1FP3SH704X01V,3QHK8ZVMIVJO62VCZADZO5TERHTBL8,M8HQ4,M8HQ4,3QHK8ZVMIVJO62VCZADZO5TERHTBL8,3QHK8ZVMIVJO62VCZADZO5TERHTBL8,338054,338054,2,0.04,"""",null,null,"<div class = fixationbox><div class = fixation>+</div></div>","""","""","""","""","""","""","""","""","2021-12-31 03:39:30",24.4.30.215,"Mozilla/5.0 (Windows NT 10.0; Win64; x64) AppleWebKit/537.36 (KHTML, like Gecko) Chrome/96.0.4664.110 Safari/537.36 Edg/96.0.1054.62",WebKit,Edge,96.0.1054.62,Windows,10.0,ac0f2dffeffaa78d35a552e03d03f0a8
17,2,"""",test_procedure,stim_test,canvas-button-response,46,149275,0.0-11.0-0.0-1.1,3SD15I2WEBVYX2RZ7BNPTJHHA9P63F,A1FP3SH704X01V,3QHK8ZVMIVJO62VCZADZO5TERHTBL8,M8HQ4,M8HQ4,3QHK8ZVMIVJO62VCZADZO5TERHTBL8,3QHK8ZVMIVJO62VCZADZO5TERHTBL8,338054,338054,2,0.04,"""",1223.5999999046326,1,stim1,1,Clockwise,true,"""",0.01,60,"""","""","2021-12-31 03:39:30",24.4.30.215,"Mozilla/5.0 (Windows NT 10.0; Win64; x64) AppleWebKit/537.36 (KHTML, like Gecko) Chrome/96.0.4664.110 Safari/537.36 Edg/96.0.1054.62",WebKit,Edge,96.0.1054.62,Windows,10.0,ac0f2dffeffaa78d35a552e03d03f0a8
17,2,"""",test_procedure,confidence_rating,html-slider-response,47,151050,0.0-11.0-0.0-2.1,3SD15I2WEBVYX2RZ7BNPTJHHA9P63F,A1FP3SH704X01V,3QHK8ZVMIVJO62VCZADZO5TERHTBL8,M8HQ4,M8HQ4,3QHK8ZVMIVJO62VCZADZO5TERHTBL8,3QHK8ZVMIVJO62VCZADZO5TERHTBL8,338054,338054,2,0.04,"""",1773.7999999523163,9,"<div id=""message-div""><p>How confident are you that your clockwise/counter-clockwise response just now was accurate? Please rate your confidence on the slider bar below.</p></div>","""","""","""",50,"""","""","""",9,"2021-12-31 03:39:30",24.4.30.215,"Mozilla/5.0 (Windows NT 10.0; Win64; x64) AppleWebKit/537.36 (KHTML, like Gecko) Chrome/96.0.4664.110 Safari/537.36 Edg/96.0.1054.62",WebKit,Edge,96.0.1054.62,Windows,10.0,ac0f2dffeffaa78d35a552e03d03f0a8
17,2,"""",test_procedure,fixation,html-keyboard-response,48,151554,0.0-11.0-0.0-0.2,3SD15I2WEBVYX2RZ7BNPTJHHA9P63F,A1FP3SH704X01V,3QHK8ZVMIVJO62VCZADZO5TERHTBL8,M8HQ4,M8HQ4,3QHK8ZVMIVJO62VCZADZO5TERHTBL8,3QHK8ZVMIVJO62VCZADZO5TERHTBL8,338054,338054,2,0.04,"""",null,null,"<div class = fixationbox><div class = fixation>+</div></div>","""","""","""","""","""","""","""","""","2021-12-31 03:39:30",24.4.30.215,"Mozilla/5.0 (Windows NT 10.0; Win64; x64) AppleWebKit/537.36 (KHTML, like Gecko) Chrome/96.0.4664.110 Safari/537.36 Edg/96.0.1054.62",WebKit,Edge,96.0.1054.62,Windows,10.0,ac0f2dffeffaa78d35a552e03d03f0a8
17,2,"""",test_procedure,stim_test,canvas-button-response,49,152475,0.0-11.0-0.0-1.2,3SD15I2WEBVYX2RZ7BNPTJHHA9P63F,A1FP3SH704X01V,3QHK8ZVMIVJO62VCZADZO5TERHTBL8,M8HQ4,M8HQ4,3QHK8ZVMIVJO62VCZADZO5TERHTBL8,3QHK8ZVMIVJO62VCZADZO5TERHTBL8,338054,338054,2,0.04,"""",868.9000000953674,0,stim4,0,Counter-clockwise,true,"""",0.3,120,"""","""","2021-12-31 03:39:30",24.4.30.215,"Mozilla/5.0 (Windows NT 10.0; Win64; x64) AppleWebKit/537.36 (KHTML, like Gecko) Chrome/96.0.4664.110 Safari/537.36 Edg/96.0.1054.62",WebKit,Edge,96.0.1054.62,Windows,10.0,ac0f2dffeffaa78d35a552e03d03f0a8
17,2,"""",test_procedure,confidence_rating,html-slider-response,50,154075,0.0-11.0-0.0-2.2,3SD15I2WEBVYX2RZ7BNPTJHHA9P63F,A1FP3SH704X01V,3QHK8ZVMIVJO62VCZADZO5TERHTBL8,M8HQ4,M8HQ4,3QHK8ZVMIVJO62VCZADZO5TERHTBL8,3QHK8ZVMIVJO62VCZADZO5TERHTBL8,338054,338054,2,0.04,"""",1598.9000000953674,3,"<div id=""message-div""><p>How confident are you that your clockwise/counter-clockwise response just now was accurate? Please rate your confidence on the slider bar below.</p></div>","""","""","""",50,"""","""","""",3,"2021-12-31 03:39:30",24.4.30.215,"Mozilla/5.0 (Windows NT 10.0; Win64; x64) AppleWebKit/537.36 (KHTML, like Gecko) Chrome/96.0.4664.110 Safari/537.36 Edg/96.0.1054.62",WebKit,Edge,96.0.1054.62,Windows,10.0,ac0f2dffeffaa78d35a552e03d03f0a8
17,2,"""",test_procedure,fixation,html-keyboard-response,51,154577,0.0-11.0-0.0-0.3,3SD15I2WEBVYX2RZ7BNPTJHHA9P63F,A1FP3SH704X01V,3QHK8ZVMIVJO62VCZADZO5TERHTBL8,M8HQ4,M8HQ4,3QHK8ZVMIVJO62VCZADZO5TERHTBL8,3QHK8ZVMIVJO62VCZADZO5TERHTBL8,338054,338054,2,0.04,"""",null,null,"<div class = fixationbox><div class = fixation>+</div></div>","""","""","""","""","""","""","""","""","2021-12-31 03:39:30",24.4.30.215,"Mozilla/5.0 (Windows NT 10.0; Win64; x64) AppleWebKit/537.36 (KHTML, like Gecko) Chrome/96.0.4664.110 Safari/537.36 Edg/96.0.1054.62",WebKit,Edge,96.0.1054.62,Windows,10.0,ac0f2dffeffaa78d35a552e03d03f0a8
17,2,"""",test_procedure,stim_test,canvas-button-response,52,155428,0.0-11.0-0.0-1.3,3SD15I2WEBVYX2RZ7BNPTJHHA9P63F,A1FP3SH704X01V,3QHK8ZVMIVJO62VCZADZO5TERHTBL8,M8HQ4,M8HQ4,3QHK8ZVMIVJO62VCZADZO5TERHTBL8,3QHK8ZVMIVJO62VCZADZO5TERHTBL8,338054,338054,2,0.04,"""",813,0,stim2,0,Counter-clockwise,true,"""",0.01,120,"""","""","2021-12-31 03:39:30",24.4.30.215,"Mozilla/5.0 (Windows NT 10.0; Win64; x64) AppleWebKit/537.36 (KHTML, like Gecko) Chrome/96.0.4664.110 Safari/537.36 Edg/96.0.1054.62",WebKit,Edge,96.0.1054.62,Windows,10.0,ac0f2dffeffaa78d35a552e03d03f0a8
17,2,"""",test_procedure,confidence_rating,html-slider-response,53,157076,0.0-11.0-0.0-2.3,3SD15I2WEBVYX2RZ7BNPTJHHA9P63F,A1FP3SH704X01V,3QHK8ZVMIVJO62VCZADZO5TERHTBL8,M8HQ4,M8HQ4,3QHK8ZVMIVJO62VCZADZO5TERHTBL8,3QHK8ZVMIVJO62VCZADZO5TERHTBL8,338054,338054,2,0.04,"""",1646.9000000953674,4,"<div id=""message-div""><p>How confident are you that your clockwise/counter-clockwise response just now was accurate? Please rate your confidence on the slider bar below.</p></div>","""","""","""",50,"""","""","""",4,"2021-12-31 03:39:30",24.4.30.215,"Mozilla/5.0 (Windows NT 10.0; Win64; x64) AppleWebKit/537.36 (KHTML, like Gecko) Chrome/96.0.4664.110 Safari/537.36 Edg/96.0.1054.62",WebKit,Edge,96.0.1054.62,Windows,10.0,ac0f2dffeffaa78d35a552e03d03f0a8
17,2,"""",test_procedure,fixation,html-keyboard-response,54,157579,0.0-11.0-0.0-0.4,3SD15I2WEBVYX2RZ7BNPTJHHA9P63F,A1FP3SH704X01V,3QHK8ZVMIVJO62VCZADZO5TERHTBL8,M8HQ4,M8HQ4,3QHK8ZVMIVJO62VCZADZO5TERHTBL8,3QHK8ZVMIVJO62VCZADZO5TERHTBL8,338054,338054,2,0.04,"""",null,null,"<div class = fixationbox><div class = fixation>+</div></div>","""","""","""","""","""","""","""","""","2021-12-31 03:39:30",24.4.30.215,"Mozilla/5.0 (Windows NT 10.0; Win64; x64) AppleWebKit/537.36 (KHTML, like Gecko) Chrome/96.0.4664.110 Safari/537.36 Edg/96.0.1054.62",WebKit,Edge,96.0.1054.62,Windows,10.0,ac0f2dffeffaa78d35a552e03d03f0a8
17,2,"""",test_procedure,stim_test,canvas-button-response,55,159570,0.0-11.0-0.0-1.4,3SD15I2WEBVYX2RZ7BNPTJHHA9P63F,A1FP3SH704X01V,3QHK8ZVMIVJO62VCZADZO5TERHTBL8,M8HQ4,M8HQ4,3QHK8ZVMIVJO62VCZADZO5TERHTBL8,3QHK8ZVMIVJO62VCZADZO5TERHTBL8,338054,338054,2,0.04,"""",1940.8999998569489,1,catchStim4,0,Counter-clockwise,false,"""",0.01,120,0.001,"""","2021-12-31 03:39:30",24.4.30.215,"Mozilla/5.0 (Windows NT 10.0; Win64; x64) AppleWebKit/537.36 (KHTML, like Gecko) Chrome/96.0.4664.110 Safari/537.36 Edg/96.0.1054.62",WebKit,Edge,96.0.1054.62,Windows,10.0,ac0f2dffeffaa78d35a552e03d03f0a8
17,2,"""",test_procedure,confidence_rating,html-slider-response,56,162843,0.0-11.0-0.0-2.4,3SD15I2WEBVYX2RZ7BNPTJHHA9P63F,A1FP3SH704X01V,3QHK8ZVMIVJO62VCZADZO5TERHTBL8,M8HQ4,M8HQ4,3QHK8ZVMIVJO62VCZADZO5TERHTBL8,3QHK8ZVMIVJO62VCZADZO5TERHTBL8,338054,338054,2,0.04,"""",3272.0999999046326,1,"<div id=""message-div""><p>How confident are you that your clockwise/counter-clockwise response just now was accurate? Please rate your confidence on the slider bar below.</p></div>","""","""","""",50,"""","""","""",1,"2021-12-31 03:39:30",24.4.30.215,"Mozilla/5.0 (Windows NT 10.0; Win64; x64) AppleWebKit/537.36 (KHTML, like Gecko) Chrome/96.0.4664.110 Safari/537.36 Edg/96.0.1054.62",WebKit,Edge,96.0.1054.62,Windows,10.0,ac0f2dffeffaa78d35a552e03d03f0a8
17,2,"""",test_procedure,fixation,html-keyboard-response,57,163347,0.0-11.0-0.0-0.5,3SD15I2WEBVYX2RZ7BNPTJHHA9P63F,A1FP3SH704X01V,3QHK8ZVMIVJO62VCZADZO5TERHTBL8,M8HQ4,M8HQ4,3QHK8ZVMIVJO62VCZADZO5TERHTBL8,3QHK8ZVMIVJO62VCZADZO5TERHTBL8,338054,338054,2,0.04,"""",null,null,"<div class = fixationbox><div class = fixation>+</div></div>","""","""","""","""","""","""","""","""","2021-12-31 03:39:30",24.4.30.215,"Mozilla/5.0 (Windows NT 10.0; Win64; x64) AppleWebKit/537.36 (KHTML, like Gecko) Chrome/96.0.4664.110 Safari/537.36 Edg/96.0.1054.62",WebKit,Edge,96.0.1054.62,Windows,10.0,ac0f2dffeffaa78d35a552e03d03f0a8
17,2,"""",test_procedure,stim_test,canvas-button-response,58,164458,0.0-11.0-0.0-1.5,3SD15I2WEBVYX2RZ7BNPTJHHA9P63F,A1FP3SH704X01V,3QHK8ZVMIVJO62VCZADZO5TERHTBL8,M8HQ4,M8HQ4,3QHK8ZVMIVJO62VCZADZO5TERHTBL8,3QHK8ZVMIVJO62VCZADZO5TERHTBL8,338054,338054,2,0.04,"""",1054.8999998569489,1,catchStim1,1,Clockwise,true,"""",0.01,60,0.6,"""","2021-12-31 03:39:30",24.4.30.215,"Mozilla/5.0 (Windows NT 10.0; Win64; x64) AppleWebKit/537.36 (KHTML, like Gecko) Chrome/96.0.4664.110 Safari/537.36 Edg/96.0.1054.62",WebKit,Edge,96.0.1054.62,Windows,10.0,ac0f2dffeffaa78d35a552e03d03f0a8
17,2,"""",test_procedure,confidence_rating,html-slider-response,59,165939,0.0-11.0-0.0-2.5,3SD15I2WEBVYX2RZ7BNPTJHHA9P63F,A1FP3SH704X01V,3QHK8ZVMIVJO62VCZADZO5TERHTBL8,M8HQ4,M8HQ4,3QHK8ZVMIVJO62VCZADZO5TERHTBL8,3QHK8ZVMIVJO62VCZADZO5TERHTBL8,338054,338054,2,0.04,"""",1480,85,"<div id=""message-div""><p>How confident are you that your clockwise/counter-clockwise response just now was accurate? Please rate your confidence on the slider bar below.</p></div>","""","""","""",50,"""","""","""",85,"2021-12-31 03:39:30",24.4.30.215,"Mozilla/5.0 (Windows NT 10.0; Win64; x64) AppleWebKit/537.36 (KHTML, like Gecko) Chrome/96.0.4664.110 Safari/537.36 Edg/96.0.1054.62",WebKit,Edge,96.0.1054.62,Windows,10.0,ac0f2dffeffaa78d35a552e03d03f0a8
17,2,"""",test_procedure,fixation,html-keyboard-response,60,166441,0.0-11.0-0.0-0.6,3SD15I2WEBVYX2RZ7BNPTJHHA9P63F,A1FP3SH704X01V,3QHK8ZVMIVJO62VCZADZO5TERHTBL8,M8HQ4,M8HQ4,3QHK8ZVMIVJO62VCZADZO5TERHTBL8,3QHK8ZVMIVJO62VCZADZO5TERHTBL8,338054,338054,2,0.04,"""",null,null,"<div class = fixationbox><div class = fixation>+</div></div>","""","""","""","""","""","""","""","""","2021-12-31 03:39:30",24.4.30.215,"Mozilla/5.0 (Windows NT 10.0; Win64; x64) AppleWebKit/537.36 (KHTML, like Gecko) Chrome/96.0.4664.110 Safari/537.36 Edg/96.0.1054.62",WebKit,Edge,96.0.1054.62,Windows,10.0,ac0f2dffeffaa78d35a552e03d03f0a8
17,2,"""",test_procedure,stim_test,canvas-button-response,61,167267,0.0-11.0-0.0-1.6,3SD15I2WEBVYX2RZ7BNPTJHHA9P63F,A1FP3SH704X01V,3QHK8ZVMIVJO62VCZADZO5TERHTBL8,M8HQ4,M8HQ4,3QHK8ZVMIVJO62VCZADZO5TERHTBL8,3QHK8ZVMIVJO62VCZADZO5TERHTBL8,338054,338054,2,0.04,"""",774.2999999523163,1,catchStim5,1,Clockwise,true,"""",0.3,60,0.6,"""","2021-12-31 03:39:30",24.4.30.215,"Mozilla/5.0 (Windows NT 10.0; Win64; x64) AppleWebKit/537.36 (KHTML, like Gecko) Chrome/96.0.4664.110 Safari/537.36 Edg/96.0.1054.62",WebKit,Edge,96.0.1054.62,Windows,10.0,ac0f2dffeffaa78d35a552e03d03f0a8
17,2,"""",test_procedure,confidence_rating,html-slider-response,62,169252,0.0-11.0-0.0-2.6,3SD15I2WEBVYX2RZ7BNPTJHHA9P63F,A1FP3SH704X01V,3QHK8ZVMIVJO62VCZADZO5TERHTBL8,M8HQ4,M8HQ4,3QHK8ZVMIVJO62VCZADZO5TERHTBL8,3QHK8ZVMIVJO62VCZADZO5TERHTBL8,338054,338054,2,0.04,"""",1983.7000000476837,85,"<div id=""message-div""><p>How confident are you that your clockwise/counter-clockwise response just now was accurate? Please rate your confidence on the slider bar below.</p></div>","""","""","""",50,"""","""","""",85,"2021-12-31 03:39:30",24.4.30.215,"Mozilla/5.0 (Windows NT 10.0; Win64; x64) AppleWebKit/537.36 (KHTML, like Gecko) Chrome/96.0.4664.110 Safari/537.36 Edg/96.0.1054.62",WebKit,Edge,96.0.1054.62,Windows,10.0,ac0f2dffeffaa78d35a552e03d03f0a8
17,2,"""",test_procedure,fixation,html-keyboard-response,63,169755,0.0-11.0-0.0-0.7,3SD15I2WEBVYX2RZ7BNPTJHHA9P63F,A1FP3SH704X01V,3QHK8ZVMIVJO62VCZADZO5TERHTBL8,M8HQ4,M8HQ4,3QHK8ZVMIVJO62VCZADZO5TERHTBL8,3QHK8ZVMIVJO62VCZADZO5TERHTBL8,338054,338054,2,0.04,"""",null,null,"<div class = fixationbox><div class = fixation>+</div></div>","""","""","""","""","""","""","""","""","2021-12-31 03:39:30",24.4.30.215,"Mozilla/5.0 (Windows NT 10.0; Win64; x64) AppleWebKit/537.36 (KHTML, like Gecko) Chrome/96.0.4664.110 Safari/537.36 Edg/96.0.1054.62",WebKit,Edge,96.0.1054.62,Windows,10.0,ac0f2dffeffaa78d35a552e03d03f0a8
17,2,"""",test_procedure,stim_test,canvas-button-response,64,170627,0.0-11.0-0.0-1.7,3SD15I2WEBVYX2RZ7BNPTJHHA9P63F,A1FP3SH704X01V,3QHK8ZVMIVJO62VCZADZO5TERHTBL8,M8HQ4,M8HQ4,3QHK8ZVMIVJO62VCZADZO5TERHTBL8,3QHK8ZVMIVJO62VCZADZO5TERHTBL8,338054,338054,2,0.04,"""",827,0,catchStim7,1,Clockwise,false,"""",0.3,60,0.001,"""","2021-12-31 03:39:30",24.4.30.215,"Mozilla/5.0 (Windows NT 10.0; Win64; x64) AppleWebKit/537.36 (KHTML, like Gecko) Chrome/96.0.4664.110 Safari/537.36 Edg/96.0.1054.62",WebKit,Edge,96.0.1054.62,Windows,10.0,ac0f2dffeffaa78d35a552e03d03f0a8
17,2,"""",test_procedure,confidence_rating,html-slider-response,65,172163,0.0-11.0-0.0-2.7,3SD15I2WEBVYX2RZ7BNPTJHHA9P63F,A1FP3SH704X01V,3QHK8ZVMIVJO62VCZADZO5TERHTBL8,M8HQ4,M8HQ4,3QHK8ZVMIVJO62VCZADZO5TERHTBL8,3QHK8ZVMIVJO62VCZADZO5TERHTBL8,338054,338054,2,0.04,"""",1535.2999999523163,12,"<div id=""message-div""><p>How confident are you that your clockwise/counter-clockwise response just now was accurate? Please rate your confidence on the slider bar below.</p></div>","""","""","""",50,"""","""","""",12,"2021-12-31 03:39:30",24.4.30.215,"Mozilla/5.0 (Windows NT 10.0; Win64; x64) AppleWebKit/537.36 (KHTML, like Gecko) Chrome/96.0.4664.110 Safari/537.36 Edg/96.0.1054.62",WebKit,Edge,96.0.1054.62,Windows,10.0,ac0f2dffeffaa78d35a552e03d03f0a8
17,2,"""",test_procedure,fixation,html-keyboard-response,66,172666,0.0-11.0-0.0-0.8,3SD15I2WEBVYX2RZ7BNPTJHHA9P63F,A1FP3SH704X01V,3QHK8ZVMIVJO62VCZADZO5TERHTBL8,M8HQ4,M8HQ4,3QHK8ZVMIVJO62VCZADZO5TERHTBL8,3QHK8ZVMIVJO62VCZADZO5TERHTBL8,338054,338054,2,0.04,"""",null,null,"<div class = fixationbox><div class = fixation>+</div></div>","""","""","""","""","""","""","""","""","2021-12-31 03:39:30",24.4.30.215,"Mozilla/5.0 (Windows NT 10.0; Win64; x64) AppleWebKit/537.36 (KHTML, like Gecko) Chrome/96.0.4664.110 Safari/537.36 Edg/96.0.1054.62",WebKit,Edge,96.0.1054.62,Windows,10.0,ac0f2dffeffaa78d35a552e03d03f0a8
17,2,"""",test_procedure,stim_test,canvas-button-response,67,173412,0.0-11.0-0.0-1.8,3SD15I2WEBVYX2RZ7BNPTJHHA9P63F,A1FP3SH704X01V,3QHK8ZVMIVJO62VCZADZO5TERHTBL8,M8HQ4,M8HQ4,3QHK8ZVMIVJO62VCZADZO5TERHTBL8,3QHK8ZVMIVJO62VCZADZO5TERHTBL8,338054,338054,2,0.04,"""",715.5999999046326,0,stim4,0,Counter-clockwise,true,"""",0.3,120,"""","""","2021-12-31 03:39:30",24.4.30.215,"Mozilla/5.0 (Windows NT 10.0; Win64; x64) AppleWebKit/537.36 (KHTML, like Gecko) Chrome/96.0.4664.110 Safari/537.36 Edg/96.0.1054.62",WebKit,Edge,96.0.1054.62,Windows,10.0,ac0f2dffeffaa78d35a552e03d03f0a8
17,2,"""",test_procedure,confidence_rating,html-slider-response,68,174899,0.0-11.0-0.0-2.8,3SD15I2WEBVYX2RZ7BNPTJHHA9P63F,A1FP3SH704X01V,3QHK8ZVMIVJO62VCZADZO5TERHTBL8,M8HQ4,M8HQ4,3QHK8ZVMIVJO62VCZADZO5TERHTBL8,3QHK8ZVMIVJO62VCZADZO5TERHTBL8,338054,338054,2,0.04,"""",1486.0999999046326,6,"<div id=""message-div""><p>How confident are you that your clockwise/counter-clockwise response just now was accurate? Please rate your confidence on the slider bar below.</p></div>","""","""","""",50,"""","""","""",6,"2021-12-31 03:39:30",24.4.30.215,"Mozilla/5.0 (Windows NT 10.0; Win64; x64) AppleWebKit/537.36 (KHTML, like Gecko) Chrome/96.0.4664.110 Safari/537.36 Edg/96.0.1054.62",WebKit,Edge,96.0.1054.62,Windows,10.0,ac0f2dffeffaa78d35a552e03d03f0a8
17,2,"""",test_procedure,fixation,html-keyboard-response,69,175400,0.0-11.0-0.0-0.9,3SD15I2WEBVYX2RZ7BNPTJHHA9P63F,A1FP3SH704X01V,3QHK8ZVMIVJO62VCZADZO5TERHTBL8,M8HQ4,M8HQ4,3QHK8ZVMIVJO62VCZADZO5TERHTBL8,3QHK8ZVMIVJO62VCZADZO5TERHTBL8,338054,338054,2,0.04,"""",null,null,"<div class = fixationbox><div class = fixation>+</div></div>","""","""","""","""","""","""","""","""","2021-12-31 03:39:30",24.4.30.215,"Mozilla/5.0 (Windows NT 10.0; Win64; x64) AppleWebKit/537.36 (KHTML, like Gecko) Chrome/96.0.4664.110 Safari/537.36 Edg/96.0.1054.62",WebKit,Edge,96.0.1054.62,Windows,10.0,ac0f2dffeffaa78d35a552e03d03f0a8
17,2,"""",test_procedure,stim_test,canvas-button-response,70,176268,0.0-11.0-0.0-1.9,3SD15I2WEBVYX2RZ7BNPTJHHA9P63F,A1FP3SH704X01V,3QHK8ZVMIVJO62VCZADZO5TERHTBL8,M8HQ4,M8HQ4,3QHK8ZVMIVJO62VCZADZO5TERHTBL8,3QHK8ZVMIVJO62VCZADZO5TERHTBL8,338054,338054,2,0.04,"""",841.2000000476837,0,stim4,0,Counter-clockwise,true,"""",0.3,120,"""","""","2021-12-31 03:39:30",24.4.30.215,"Mozilla/5.0 (Windows NT 10.0; Win64; x64) AppleWebKit/537.36 (KHTML, like Gecko) Chrome/96.0.4664.110 Safari/537.36 Edg/96.0.1054.62",WebKit,Edge,96.0.1054.62,Windows,10.0,ac0f2dffeffaa78d35a552e03d03f0a8
17,2,"""",test_procedure,confidence_rating,html-slider-response,71,177652,0.0-11.0-0.0-2.9,3SD15I2WEBVYX2RZ7BNPTJHHA9P63F,A1FP3SH704X01V,3QHK8ZVMIVJO62VCZADZO5TERHTBL8,M8HQ4,M8HQ4,3QHK8ZVMIVJO62VCZADZO5TERHTBL8,3QHK8ZVMIVJO62VCZADZO5TERHTBL8,338054,338054,2,0.04,"""",1382.7999999523163,7,"<div id=""message-div""><p>How confident are you that your clockwise/counter-clockwise response just now was accurate? Please rate your confidence on the slider bar below.</p></div>","""","""","""",50,"""","""","""",7,"2021-12-31 03:39:30",24.4.30.215,"Mozilla/5.0 (Windows NT 10.0; Win64; x64) AppleWebKit/537.36 (KHTML, like Gecko) Chrome/96.0.4664.110 Safari/537.36 Edg/96.0.1054.62",WebKit,Edge,96.0.1054.62,Windows,10.0,ac0f2dffeffaa78d35a552e03d03f0a8
17,2,"""",test_procedure,fixation,html-keyboard-response,72,178155,0.0-11.0-0.0-0.10,3SD15I2WEBVYX2RZ7BNPTJHHA9P63F,A1FP3SH704X01V,3QHK8ZVMIVJO62VCZADZO5TERHTBL8,M8HQ4,M8HQ4,3QHK8ZVMIVJO62VCZADZO5TERHTBL8,3QHK8ZVMIVJO62VCZADZO5TERHTBL8,338054,338054,2,0.04,"""",null,null,"<div class = fixationbox><div class = fixation>+</div></div>","""","""","""","""","""","""","""","""","2021-12-31 03:39:30",24.4.30.215,"Mozilla/5.0 (Windows NT 10.0; Win64; x64) AppleWebKit/537.36 (KHTML, like Gecko) Chrome/96.0.4664.110 Safari/537.36 Edg/96.0.1054.62",WebKit,Edge,96.0.1054.62,Windows,10.0,ac0f2dffeffaa78d35a552e03d03f0a8
17,2,"""",test_procedure,stim_test,canvas-button-response,73,178957,0.0-11.0-0.0-1.10,3SD15I2WEBVYX2RZ7BNPTJHHA9P63F,A1FP3SH704X01V,3QHK8ZVMIVJO62VCZADZO5TERHTBL8,M8HQ4,M8HQ4,3QHK8ZVMIVJO62VCZADZO5TERHTBL8,3QHK8ZVMIVJO62VCZADZO5TERHTBL8,338054,338054,2,0.04,"""",763.5,0,catchStim2,0,Counter-clockwise,true,"""",0.01,120,0.6,"""","2021-12-31 03:39:30",24.4.30.215,"Mozilla/5.0 (Windows NT 10.0; Win64; x64) AppleWebKit/537.36 (KHTML, like Gecko) Chrome/96.0.4664.110 Safari/537.36 Edg/96.0.1054.62",WebKit,Edge,96.0.1054.62,Windows,10.0,ac0f2dffeffaa78d35a552e03d03f0a8
17,2,"""",test_procedure,confidence_rating,html-slider-response,74,180812,0.0-11.0-0.0-2.10,3SD15I2WEBVYX2RZ7BNPTJHHA9P63F,A1FP3SH704X01V,3QHK8ZVMIVJO62VCZADZO5TERHTBL8,M8HQ4,M8HQ4,3QHK8ZVMIVJO62VCZADZO5TERHTBL8,3QHK8ZVMIVJO62VCZADZO5TERHTBL8,338054,338054,2,0.04,"""",1853.3999998569489,93,"<div id=""message-div""><p>How confident are you that your clockwise/counter-clockwise response just now was accurate? Please rate your confidence on the slider bar below.</p></div>","""","""","""",50,"""","""","""",93,"2021-12-31 03:39:30",24.4.30.215,"Mozilla/5.0 (Windows NT 10.0; Win64; x64) AppleWebKit/537.36 (KHTML, like Gecko) Chrome/96.0.4664.110 Safari/537.36 Edg/96.0.1054.62",WebKit,Edge,96.0.1054.62,Windows,10.0,ac0f2dffeffaa78d35a552e03d03f0a8
17,2,"""",test_procedure,fixation,html-keyboard-response,75,181315,0.0-11.0-0.0-0.11,3SD15I2WEBVYX2RZ7BNPTJHHA9P63F,A1FP3SH704X01V,3QHK8ZVMIVJO62VCZADZO5TERHTBL8,M8HQ4,M8HQ4,3QHK8ZVMIVJO62VCZADZO5TERHTBL8,3QHK8ZVMIVJO62VCZADZO5TERHTBL8,338054,338054,2,0.04,"""",null,null,"<div class = fixationbox><div class = fixation>+</div></div>","""","""","""","""","""","""","""","""","2021-12-31 03:39:30",24.4.30.215,"Mozilla/5.0 (Windows NT 10.0; Win64; x64) AppleWebKit/537.36 (KHTML, like Gecko) Chrome/96.0.4664.110 Safari/537.36 Edg/96.0.1054.62",WebKit,Edge,96.0.1054.62,Windows,10.0,ac0f2dffeffaa78d35a552e03d03f0a8
17,2,"""",test_procedure,stim_test,canvas-button-response,76,182350,0.0-11.0-0.0-1.11,3SD15I2WEBVYX2RZ7BNPTJHHA9P63F,A1FP3SH704X01V,3QHK8ZVMIVJO62VCZADZO5TERHTBL8,M8HQ4,M8HQ4,3QHK8ZVMIVJO62VCZADZO5TERHTBL8,3QHK8ZVMIVJO62VCZADZO5TERHTBL8,338054,338054,2,0.04,"""",994.5999999046326,1,stim3,1,Clockwise,true,"""",0.3,60,"""","""","2021-12-31 03:39:30",24.4.30.215,"Mozilla/5.0 (Windows NT 10.0; Win64; x64) AppleWebKit/537.36 (KHTML, like Gecko) Chrome/96.0.4664.110 Safari/537.36 Edg/96.0.1054.62",WebKit,Edge,96.0.1054.62,Windows,10.0,ac0f2dffeffaa78d35a552e03d03f0a8
17,2,"""",test_procedure,confidence_rating,html-slider-response,77,184581,0.0-11.0-0.0-2.11,3SD15I2WEBVYX2RZ7BNPTJHHA9P63F,A1FP3SH704X01V,3QHK8ZVMIVJO62VCZADZO5TERHTBL8,M8HQ4,M8HQ4,3QHK8ZVMIVJO62VCZADZO5TERHTBL8,3QHK8ZVMIVJO62VCZADZO5TERHTBL8,338054,338054,2,0.04,"""",2230.5,4,"<div id=""message-div""><p>How confident are you that your clockwise/counter-clockwise response just now was accurate? Please rate your confidence on the slider bar below.</p></div>","""","""","""",50,"""","""","""",4,"2021-12-31 03:39:30",24.4.30.215,"Mozilla/5.0 (Windows NT 10.0; Win64; x64) AppleWebKit/537.36 (KHTML, like Gecko) Chrome/96.0.4664.110 Safari/537.36 Edg/96.0.1054.62",WebKit,Edge,96.0.1054.62,Windows,10.0,ac0f2dffeffaa78d35a552e03d03f0a8
17,2,"""",test_procedure,fixation,html-keyboard-response,78,185084,0.0-11.0-0.0-0.12,3SD15I2WEBVYX2RZ7BNPTJHHA9P63F,A1FP3SH704X01V,3QHK8ZVMIVJO62VCZADZO5TERHTBL8,M8HQ4,M8HQ4,3QHK8ZVMIVJO62VCZADZO5TERHTBL8,3QHK8ZVMIVJO62VCZADZO5TERHTBL8,338054,338054,2,0.04,"""",null,null,"<div class = fixationbox><div class = fixation>+</div></div>","""","""","""","""","""","""","""","""","2021-12-31 03:39:30",24.4.30.215,"Mozilla/5.0 (Windows NT 10.0; Win64; x64) AppleWebKit/537.36 (KHTML, like Gecko) Chrome/96.0.4664.110 Safari/537.36 Edg/96.0.1054.62",WebKit,Edge,96.0.1054.62,Windows,10.0,ac0f2dffeffaa78d35a552e03d03f0a8
17,2,"""",test_procedure,stim_test,canvas-button-response,79,185941,0.0-11.0-0.0-1.12,3SD15I2WEBVYX2RZ7BNPTJHHA9P63F,A1FP3SH704X01V,3QHK8ZVMIVJO62VCZADZO5TERHTBL8,M8HQ4,M8HQ4,3QHK8ZVMIVJO62VCZADZO5TERHTBL8,3QHK8ZVMIVJO62VCZADZO5TERHTBL8,338054,338054,2,0.04,"""",825.2000000476837,0,catchStim6,0,Counter-clockwise,true,"""",0.3,120,0.6,"""","2021-12-31 03:39:30",24.4.30.215,"Mozilla/5.0 (Windows NT 10.0; Win64; x64) AppleWebKit/537.36 (KHTML, like Gecko) Chrome/96.0.4664.110 Safari/537.36 Edg/96.0.1054.62",WebKit,Edge,96.0.1054.62,Windows,10.0,ac0f2dffeffaa78d35a552e03d03f0a8
17,2,"""",test_procedure,confidence_rating,html-slider-response,80,187597,0.0-11.0-0.0-2.12,3SD15I2WEBVYX2RZ7BNPTJHHA9P63F,A1FP3SH704X01V,3QHK8ZVMIVJO62VCZADZO5TERHTBL8,M8HQ4,M8HQ4,3QHK8ZVMIVJO62VCZADZO5TERHTBL8,3QHK8ZVMIVJO62VCZADZO5TERHTBL8,338054,338054,2,0.04,"""",1655.2999999523163,98,"<div id=""message-div""><p>How confident are you that your clockwise/counter-clockwise response just now was accurate? Please rate your confidence on the slider bar below.</p></div>","""","""","""",50,"""","""","""",98,"2021-12-31 03:39:30",24.4.30.215,"Mozilla/5.0 (Windows NT 10.0; Win64; x64) AppleWebKit/537.36 (KHTML, like Gecko) Chrome/96.0.4664.110 Safari/537.36 Edg/96.0.1054.62",WebKit,Edge,96.0.1054.62,Windows,10.0,ac0f2dffeffaa78d35a552e03d03f0a8
17,2,"""",test_procedure,fixation,html-keyboard-response,81,188101,0.0-11.0-0.0-0.13,3SD15I2WEBVYX2RZ7BNPTJHHA9P63F,A1FP3SH704X01V,3QHK8ZVMIVJO62VCZADZO5TERHTBL8,M8HQ4,M8HQ4,3QHK8ZVMIVJO62VCZADZO5TERHTBL8,3QHK8ZVMIVJO62VCZADZO5TERHTBL8,338054,338054,2,0.04,"""",null,null,"<div class = fixationbox><div class = fixation>+</div></div>","""","""","""","""","""","""","""","""","2021-12-31 03:39:30",24.4.30.215,"Mozilla/5.0 (Windows NT 10.0; Win64; x64) AppleWebKit/537.36 (KHTML, like Gecko) Chrome/96.0.4664.110 Safari/537.36 Edg/96.0.1054.62",WebKit,Edge,96.0.1054.62,Windows,10.0,ac0f2dffeffaa78d35a552e03d03f0a8
17,2,"""",test_procedure,stim_test,canvas-button-response,82,189141,0.0-11.0-0.0-1.13,3SD15I2WEBVYX2RZ7BNPTJHHA9P63F,A1FP3SH704X01V,3QHK8ZVMIVJO62VCZADZO5TERHTBL8,M8HQ4,M8HQ4,3QHK8ZVMIVJO62VCZADZO5TERHTBL8,3QHK8ZVMIVJO62VCZADZO5TERHTBL8,338054,338054,2,0.04,"""",994.9000000953674,0,stim1,1,Clockwise,false,"""",0.01,60,"""","""","2021-12-31 03:39:30",24.4.30.215,"Mozilla/5.0 (Windows NT 10.0; Win64; x64) AppleWebKit/537.36 (KHTML, like Gecko) Chrome/96.0.4664.110 Safari/537.36 Edg/96.0.1054.62",WebKit,Edge,96.0.1054.62,Windows,10.0,ac0f2dffeffaa78d35a552e03d03f0a8
17,2,"""",test_procedure,confidence_rating,html-slider-response,83,191238,0.0-11.0-0.0-2.13,3SD15I2WEBVYX2RZ7BNPTJHHA9P63F,A1FP3SH704X01V,3QHK8ZVMIVJO62VCZADZO5TERHTBL8,M8HQ4,M8HQ4,3QHK8ZVMIVJO62VCZADZO5TERHTBL8,3QHK8ZVMIVJO62VCZADZO5TERHTBL8,338054,338054,2,0.04,"""",2096.100000143051,0,"<div id=""message-div""><p>How confident are you that your clockwise/counter-clockwise response just now was accurate? Please rate your confidence on the slider bar below.</p></div>","""","""","""",50,"""","""","""",0,"2021-12-31 03:39:30",24.4.30.215,"Mozilla/5.0 (Windows NT 10.0; Win64; x64) AppleWebKit/537.36 (KHTML, like Gecko) Chrome/96.0.4664.110 Safari/537.36 Edg/96.0.1054.62",WebKit,Edge,96.0.1054.62,Windows,10.0,ac0f2dffeffaa78d35a552e03d03f0a8
17,2,"""",test_procedure,fixation,html-keyboard-response,84,191740,0.0-11.0-0.0-0.14,3SD15I2WEBVYX2RZ7BNPTJHHA9P63F,A1FP3SH704X01V,3QHK8ZVMIVJO62VCZADZO5TERHTBL8,M8HQ4,M8HQ4,3QHK8ZVMIVJO62VCZADZO5TERHTBL8,3QHK8ZVMIVJO62VCZADZO5TERHTBL8,338054,338054,2,0.04,"""",null,null,"<div class = fixationbox><div class = fixation>+</div></div>","""","""","""","""","""","""","""","""","2021-12-31 03:39:30",24.4.30.215,"Mozilla/5.0 (Windows NT 10.0; Win64; x64) AppleWebKit/537.36 (KHTML, like Gecko) Chrome/96.0.4664.110 Safari/537.36 Edg/96.0.1054.62",WebKit,Edge,96.0.1054.62,Windows,10.0,ac0f2dffeffaa78d35a552e03d03f0a8
17,2,"""",test_procedure,stim_test,canvas-button-response,85,192863,0.0-11.0-0.0-1.14,3SD15I2WEBVYX2RZ7BNPTJHHA9P63F,A1FP3SH704X01V,3QHK8ZVMIVJO62VCZADZO5TERHTBL8,M8HQ4,M8HQ4,3QHK8ZVMIVJO62VCZADZO5TERHTBL8,3QHK8ZVMIVJO62VCZADZO5TERHTBL8,338054,338054,2,0.04,"""",1091.0999999046326,1,stim2,0,Counter-clockwise,false,"""",0.01,120,"""","""","2021-12-31 03:39:30",24.4.30.215,"Mozilla/5.0 (Windows NT 10.0; Win64; x64) AppleWebKit/537.36 (KHTML, like Gecko) Chrome/96.0.4664.110 Safari/537.36 Edg/96.0.1054.62",WebKit,Edge,96.0.1054.62,Windows,10.0,ac0f2dffeffaa78d35a552e03d03f0a8
17,2,"""",test_procedure,confidence_rating,html-slider-response,86,195046,0.0-11.0-0.0-2.14,3SD15I2WEBVYX2RZ7BNPTJHHA9P63F,A1FP3SH704X01V,3QHK8ZVMIVJO62VCZADZO5TERHTBL8,M8HQ4,M8HQ4,3QHK8ZVMIVJO62VCZADZO5TERHTBL8,3QHK8ZVMIVJO62VCZADZO5TERHTBL8,338054,338054,2,0.04,"""",2182,0,"<div id=""message-div""><p>How confident are you that your clockwise/counter-clockwise response just now was accurate? Please rate your confidence on the slider bar below.</p></div>","""","""","""",50,"""","""","""",0,"2021-12-31 03:39:30",24.4.30.215,"Mozilla/5.0 (Windows NT 10.0; Win64; x64) AppleWebKit/537.36 (KHTML, like Gecko) Chrome/96.0.4664.110 Safari/537.36 Edg/96.0.1054.62",WebKit,Edge,96.0.1054.62,Windows,10.0,ac0f2dffeffaa78d35a552e03d03f0a8
17,2,"""",test_procedure,fixation,html-keyboard-response,87,195561,0.0-11.0-0.0-0.15,3SD15I2WEBVYX2RZ7BNPTJHHA9P63F,A1FP3SH704X01V,3QHK8ZVMIVJO62VCZADZO5TERHTBL8,M8HQ4,M8HQ4,3QHK8ZVMIVJO62VCZADZO5TERHTBL8,3QHK8ZVMIVJO62VCZADZO5TERHTBL8,338054,338054,2,0.04,"""",null,null,"<div class = fixationbox><div class = fixation>+</div></div>","""","""","""","""","""","""","""","""","2021-12-31 03:39:30",24.4.30.215,"Mozilla/5.0 (Windows NT 10.0; Win64; x64) AppleWebKit/537.36 (KHTML, like Gecko) Chrome/96.0.4664.110 Safari/537.36 Edg/96.0.1054.62",WebKit,Edge,96.0.1054.62,Windows,10.0,ac0f2dffeffaa78d35a552e03d03f0a8
17,2,"""",test_procedure,stim_test,canvas-button-response,88,196551,0.0-11.0-0.0-1.15,3SD15I2WEBVYX2RZ7BNPTJHHA9P63F,A1FP3SH704X01V,3QHK8ZVMIVJO62VCZADZO5TERHTBL8,M8HQ4,M8HQ4,3QHK8ZVMIVJO62VCZADZO5TERHTBL8,3QHK8ZVMIVJO62VCZADZO5TERHTBL8,338054,338054,2,0.04,"""",943.5999999046326,1,catchStim3,1,Clockwise,true,"""",0.01,60,0.001,"""","2021-12-31 03:39:30",24.4.30.215,"Mozilla/5.0 (Windows NT 10.0; Win64; x64) AppleWebKit/537.36 (KHTML, like Gecko) Chrome/96.0.4664.110 Safari/537.36 Edg/96.0.1054.62",WebKit,Edge,96.0.1054.62,Windows,10.0,ac0f2dffeffaa78d35a552e03d03f0a8
17,2,"""",test_procedure,confidence_rating,html-slider-response,89,198607,0.0-11.0-0.0-2.15,3SD15I2WEBVYX2RZ7BNPTJHHA9P63F,A1FP3SH704X01V,3QHK8ZVMIVJO62VCZADZO5TERHTBL8,M8HQ4,M8HQ4,3QHK8ZVMIVJO62VCZADZO5TERHTBL8,3QHK8ZVMIVJO62VCZADZO5TERHTBL8,338054,338054,2,0.04,"""",2055.5,0,"<div id=""message-div""><p>How confident are you that your clockwise/counter-clockwise response just now was accurate? Please rate your confidence on the slider bar below.</p></div>","""","""","""",50,"""","""","""",0,"2021-12-31 03:39:30",24.4.30.215,"Mozilla/5.0 (Windows NT 10.0; Win64; x64) AppleWebKit/537.36 (KHTML, like Gecko) Chrome/96.0.4664.110 Safari/537.36 Edg/96.0.1054.62",WebKit,Edge,96.0.1054.62,Windows,10.0,ac0f2dffeffaa78d35a552e03d03f0a8
17,2,"""",test_procedure,fixation,html-keyboard-response,90,199136,0.0-11.0-0.0-0.16,3SD15I2WEBVYX2RZ7BNPTJHHA9P63F,A1FP3SH704X01V,3QHK8ZVMIVJO62VCZADZO5TERHTBL8,M8HQ4,M8HQ4,3QHK8ZVMIVJO62VCZADZO5TERHTBL8,3QHK8ZVMIVJO62VCZADZO5TERHTBL8,338054,338054,2,0.04,"""",null,null,"<div class = fixationbox><div class = fixation>+</div></div>","""","""","""","""","""","""","""","""","2021-12-31 03:39:30",24.4.30.215,"Mozilla/5.0 (Windows NT 10.0; Win64; x64) AppleWebKit/537.36 (KHTML, like Gecko) Chrome/96.0.4664.110 Safari/537.36 Edg/96.0.1054.62",WebKit,Edge,96.0.1054.62,Windows,10.0,ac0f2dffeffaa78d35a552e03d03f0a8
17,2,"""",test_procedure,stim_test,canvas-button-response,91,199951,0.0-11.0-0.0-1.16,3SD15I2WEBVYX2RZ7BNPTJHHA9P63F,A1FP3SH704X01V,3QHK8ZVMIVJO62VCZADZO5TERHTBL8,M8HQ4,M8HQ4,3QHK8ZVMIVJO62VCZADZO5TERHTBL8,3QHK8ZVMIVJO62VCZADZO5TERHTBL8,338054,338054,2,0.04,"""",785.5,0,stim3,1,Clockwise,false,"""",0.3,60,"""","""","2021-12-31 03:39:30",24.4.30.215,"Mozilla/5.0 (Windows NT 10.0; Win64; x64) AppleWebKit/537.36 (KHTML, like Gecko) Chrome/96.0.4664.110 Safari/537.36 Edg/96.0.1054.62",WebKit,Edge,96.0.1054.62,Windows,10.0,ac0f2dffeffaa78d35a552e03d03f0a8
17,2,"""",test_procedure,confidence_rating,html-slider-response,92,201615,0.0-11.0-0.0-2.16,3SD15I2WEBVYX2RZ7BNPTJHHA9P63F,A1FP3SH704X01V,3QHK8ZVMIVJO62VCZADZO5TERHTBL8,M8HQ4,M8HQ4,3QHK8ZVMIVJO62VCZADZO5TERHTBL8,3QHK8ZVMIVJO62VCZADZO5TERHTBL8,338054,338054,2,0.04,"""",1662.7999999523163,0,"<div id=""message-div""><p>How confident are you that your clockwise/counter-clockwise response just now was accurate? Please rate your confidence on the slider bar below.</p></div>","""","""","""",50,"""","""","""",0,"2021-12-31 03:39:30",24.4.30.215,"Mozilla/5.0 (Windows NT 10.0; Win64; x64) AppleWebKit/537.36 (KHTML, like Gecko) Chrome/96.0.4664.110 Safari/537.36 Edg/96.0.1054.62",WebKit,Edge,96.0.1054.62,Windows,10.0,ac0f2dffeffaa78d35a552e03d03f0a8
17,2,"""",test_procedure,fixation,html-keyboard-response,93,202116,0.0-11.0-0.0-0.17,3SD15I2WEBVYX2RZ7BNPTJHHA9P63F,A1FP3SH704X01V,3QHK8ZVMIVJO62VCZADZO5TERHTBL8,M8HQ4,M8HQ4,3QHK8ZVMIVJO62VCZADZO5TERHTBL8,3QHK8ZVMIVJO62VCZADZO5TERHTBL8,338054,338054,2,0.04,"""",null,null,"<div class = fixationbox><div class = fixation>+</div></div>","""","""","""","""","""","""","""","""","2021-12-31 03:39:30",24.4.30.215,"Mozilla/5.0 (Windows NT 10.0; Win64; x64) AppleWebKit/537.36 (KHTML, like Gecko) Chrome/96.0.4664.110 Safari/537.36 Edg/96.0.1054.62",WebKit,Edge,96.0.1054.62,Windows,10.0,ac0f2dffeffaa78d35a552e03d03f0a8
17,2,"""",test_procedure,stim_test,canvas-button-response,94,202776,0.0-11.0-0.0-1.17,3SD15I2WEBVYX2RZ7BNPTJHHA9P63F,A1FP3SH704X01V,3QHK8ZVMIVJO62VCZADZO5TERHTBL8,M8HQ4,M8HQ4,3QHK8ZVMIVJO62VCZADZO5TERHTBL8,3QHK8ZVMIVJO62VCZADZO5TERHTBL8,338054,338054,2,0.04,"""",617.1000001430511,0,stim2,0,Counter-clockwise,true,"""",0.01,120,"""","""","2021-12-31 03:39:30",24.4.30.215,"Mozilla/5.0 (Windows NT 10.0; Win64; x64) AppleWebKit/537.36 (KHTML, like Gecko) Chrome/96.0.4664.110 Safari/537.36 Edg/96.0.1054.62",WebKit,Edge,96.0.1054.62,Windows,10.0,ac0f2dffeffaa78d35a552e03d03f0a8
17,2,"""",test_procedure,confidence_rating,html-slider-response,95,204383,0.0-11.0-0.0-2.17,3SD15I2WEBVYX2RZ7BNPTJHHA9P63F,A1FP3SH704X01V,3QHK8ZVMIVJO62VCZADZO5TERHTBL8,M8HQ4,M8HQ4,3QHK8ZVMIVJO62VCZADZO5TERHTBL8,3QHK8ZVMIVJO62VCZADZO5TERHTBL8,338054,338054,2,0.04,"""",1605.7999999523163,0,"<div id=""message-div""><p>How confident are you that your clockwise/counter-clockwise response just now was accurate? Please rate your confidence on the slider bar below.</p></div>","""","""","""",50,"""","""","""",0,"2021-12-31 03:39:30",24.4.30.215,"Mozilla/5.0 (Windows NT 10.0; Win64; x64) AppleWebKit/537.36 (KHTML, like Gecko) Chrome/96.0.4664.110 Safari/537.36 Edg/96.0.1054.62",WebKit,Edge,96.0.1054.62,Windows,10.0,ac0f2dffeffaa78d35a552e03d03f0a8
17,2,"""",test_procedure,fixation,html-keyboard-response,96,204885,0.0-11.0-0.0-0.18,3SD15I2WEBVYX2RZ7BNPTJHHA9P63F,A1FP3SH704X01V,3QHK8ZVMIVJO62VCZADZO5TERHTBL8,M8HQ4,M8HQ4,3QHK8ZVMIVJO62VCZADZO5TERHTBL8,3QHK8ZVMIVJO62VCZADZO5TERHTBL8,338054,338054,2,0.04,"""",null,null,"<div class = fixationbox><div class = fixation>+</div></div>","""","""","""","""","""","""","""","""","2021-12-31 03:39:30",24.4.30.215,"Mozilla/5.0 (Windows NT 10.0; Win64; x64) AppleWebKit/537.36 (KHTML, like Gecko) Chrome/96.0.4664.110 Safari/537.36 Edg/96.0.1054.62",WebKit,Edge,96.0.1054.62,Windows,10.0,ac0f2dffeffaa78d35a552e03d03f0a8
17,2,"""",test_procedure,stim_test,canvas-button-response,97,205672,0.0-11.0-0.0-1.18,3SD15I2WEBVYX2RZ7BNPTJHHA9P63F,A1FP3SH704X01V,3QHK8ZVMIVJO62VCZADZO5TERHTBL8,M8HQ4,M8HQ4,3QHK8ZVMIVJO62VCZADZO5TERHTBL8,3QHK8ZVMIVJO62VCZADZO5TERHTBL8,338054,338054,2,0.04,"""",759,0,catchStim8,0,Counter-clockwise,true,"""",0.3,120,0.001,"""","2021-12-31 03:39:30",24.4.30.215,"Mozilla/5.0 (Windows NT 10.0; Win64; x64) AppleWebKit/537.36 (KHTML, like Gecko) Chrome/96.0.4664.110 Safari/537.36 Edg/96.0.1054.62",WebKit,Edge,96.0.1054.62,Windows,10.0,ac0f2dffeffaa78d35a552e03d03f0a8
17,2,"""",test_procedure,confidence_rating,html-slider-response,98,207120,0.0-11.0-0.0-2.18,3SD15I2WEBVYX2RZ7BNPTJHHA9P63F,A1FP3SH704X01V,3QHK8ZVMIVJO62VCZADZO5TERHTBL8,M8HQ4,M8HQ4,3QHK8ZVMIVJO62VCZADZO5TERHTBL8,3QHK8ZVMIVJO62VCZADZO5TERHTBL8,338054,338054,2,0.04,"""",1446.9000000953674,0,"<div id=""message-div""><p>How confident are you that your clockwise/counter-clockwise response just now was accurate? Please rate your confidence on the slider bar below.</p></div>","""","""","""",50,"""","""","""",0,"2021-12-31 03:39:30",24.4.30.215,"Mozilla/5.0 (Windows NT 10.0; Win64; x64) AppleWebKit/537.36 (KHTML, like Gecko) Chrome/96.0.4664.110 Safari/537.36 Edg/96.0.1054.62",WebKit,Edge,96.0.1054.62,Windows,10.0,ac0f2dffeffaa78d35a552e03d03f0a8
17,2,"""",test_procedure,fixation,html-keyboard-response,99,207621,0.0-11.0-0.0-0.19,3SD15I2WEBVYX2RZ7BNPTJHHA9P63F,A1FP3SH704X01V,3QHK8ZVMIVJO62VCZADZO5TERHTBL8,M8HQ4,M8HQ4,3QHK8ZVMIVJO62VCZADZO5TERHTBL8,3QHK8ZVMIVJO62VCZADZO5TERHTBL8,338054,338054,2,0.04,"""",null,null,"<div class = fixationbox><div class = fixation>+</div></div>","""","""","""","""","""","""","""","""","2021-12-31 03:39:30",24.4.30.215,"Mozilla/5.0 (Windows NT 10.0; Win64; x64) AppleWebKit/537.36 (KHTML, like Gecko) Chrome/96.0.4664.110 Safari/537.36 Edg/96.0.1054.62",WebKit,Edge,96.0.1054.62,Windows,10.0,ac0f2dffeffaa78d35a552e03d03f0a8
17,2,"""",test_procedure,stim_test,canvas-button-response,100,208304,0.0-11.0-0.0-1.19,3SD15I2WEBVYX2RZ7BNPTJHHA9P63F,A1FP3SH704X01V,3QHK8ZVMIVJO62VCZADZO5TERHTBL8,M8HQ4,M8HQ4,3QHK8ZVMIVJO62VCZADZO5TERHTBL8,3QHK8ZVMIVJO62VCZADZO5TERHTBL8,338054,338054,2,0.04,"""",636.8999998569489,1,stim3,1,Clockwise,true,"""",0.3,60,"""","""","2021-12-31 03:39:30",24.4.30.215,"Mozilla/5.0 (Windows NT 10.0; Win64; x64) AppleWebKit/537.36 (KHTML, like Gecko) Chrome/96.0.4664.110 Safari/537.36 Edg/96.0.1054.62",WebKit,Edge,96.0.1054.62,Windows,10.0,ac0f2dffeffaa78d35a552e03d03f0a8
17,2,"""",test_procedure,confidence_rating,html-slider-response,101,209752,0.0-11.0-0.0-2.19,3SD15I2WEBVYX2RZ7BNPTJHHA9P63F,A1FP3SH704X01V,3QHK8ZVMIVJO62VCZADZO5TERHTBL8,M8HQ4,M8HQ4,3QHK8ZVMIVJO62VCZADZO5TERHTBL8,3QHK8ZVMIVJO62VCZADZO5TERHTBL8,338054,338054,2,0.04,"""",1445.3999998569489,0,"<div id=""message-div""><p>How confident are you that your clockwise/counter-clockwise response just now was accurate? Please rate your confidence on the slider bar below.</p></div>","""","""","""",50,"""","""","""",0,"2021-12-31 03:39:30",24.4.30.215,"Mozilla/5.0 (Windows NT 10.0; Win64; x64) AppleWebKit/537.36 (KHTML, like Gecko) Chrome/96.0.4664.110 Safari/537.36 Edg/96.0.1054.62",WebKit,Edge,96.0.1054.62,Windows,10.0,ac0f2dffeffaa78d35a552e03d03f0a8
17,2,"""",test_procedure,fixation,html-keyboard-response,102,210254,0.0-11.0-0.0-0.20,3SD15I2WEBVYX2RZ7BNPTJHHA9P63F,A1FP3SH704X01V,3QHK8ZVMIVJO62VCZADZO5TERHTBL8,M8HQ4,M8HQ4,3QHK8ZVMIVJO62VCZADZO5TERHTBL8,3QHK8ZVMIVJO62VCZADZO5TERHTBL8,338054,338054,2,0.04,"""",null,null,"<div class = fixationbox><div class = fixation>+</div></div>","""","""","""","""","""","""","""","""","2021-12-31 03:39:30",24.4.30.215,"Mozilla/5.0 (Windows NT 10.0; Win64; x64) AppleWebKit/537.36 (KHTML, like Gecko) Chrome/96.0.4664.110 Safari/537.36 Edg/96.0.1054.62",WebKit,Edge,96.0.1054.62,Windows,10.0,ac0f2dffeffaa78d35a552e03d03f0a8
17,2,"""",test_procedure,stim_test,canvas-button-response,103,211280,0.0-11.0-0.0-1.20,3SD15I2WEBVYX2RZ7BNPTJHHA9P63F,A1FP3SH704X01V,3QHK8ZVMIVJO62VCZADZO5TERHTBL8,M8HQ4,M8HQ4,3QHK8ZVMIVJO62VCZADZO5TERHTBL8,3QHK8ZVMIVJO62VCZADZO5TERHTBL8,338054,338054,2,0.04,"""",984.6000001430511,0,stim1,1,Clockwise,false,"""",0.01,60,"""","""","2021-12-31 03:39:30",24.4.30.215,"Mozilla/5.0 (Windows NT 10.0; Win64; x64) AppleWebKit/537.36 (KHTML, like Gecko) Chrome/96.0.4664.110 Safari/537.36 Edg/96.0.1054.62",WebKit,Edge,96.0.1054.62,Windows,10.0,ac0f2dffeffaa78d35a552e03d03f0a8
17,2,"""",test_procedure,confidence_rating,html-slider-response,104,212801,0.0-11.0-0.0-2.20,3SD15I2WEBVYX2RZ7BNPTJHHA9P63F,A1FP3SH704X01V,3QHK8ZVMIVJO62VCZADZO5TERHTBL8,M8HQ4,M8HQ4,3QHK8ZVMIVJO62VCZADZO5TERHTBL8,3QHK8ZVMIVJO62VCZADZO5TERHTBL8,338054,338054,2,0.04,"""",1520.6000001430511,0,"<div id=""message-div""><p>How confident are you that your clockwise/counter-clockwise response just now was accurate? Please rate your confidence on the slider bar below.</p></div>","""","""","""",50,"""","""","""",0,"2021-12-31 03:39:30",24.4.30.215,"Mozilla/5.0 (Windows NT 10.0; Win64; x64) AppleWebKit/537.36 (KHTML, like Gecko) Chrome/96.0.4664.110 Safari/537.36 Edg/96.0.1054.62",WebKit,Edge,96.0.1054.62,Windows,10.0,ac0f2dffeffaa78d35a552e03d03f0a8
17,2,"""",test_procedure,fixation,html-keyboard-response,105,213302,0.0-11.0-0.0-0.21,3SD15I2WEBVYX2RZ7BNPTJHHA9P63F,A1FP3SH704X01V,3QHK8ZVMIVJO62VCZADZO5TERHTBL8,M8HQ4,M8HQ4,3QHK8ZVMIVJO62VCZADZO5TERHTBL8,3QHK8ZVMIVJO62VCZADZO5TERHTBL8,338054,338054,2,0.04,"""",null,null,"<div class = fixationbox><div class = fixation>+</div></div>","""","""","""","""","""","""","""","""","2021-12-31 03:39:30",24.4.30.215,"Mozilla/5.0 (Windows NT 10.0; Win64; x64) AppleWebKit/537.36 (KHTML, like Gecko) Chrome/96.0.4664.110 Safari/537.36 Edg/96.0.1054.62",WebKit,Edge,96.0.1054.62,Windows,10.0,ac0f2dffeffaa78d35a552e03d03f0a8
17,2,"""",test_procedure,stim_test,canvas-button-response,106,214217,0.0-11.0-0.0-1.21,3SD15I2WEBVYX2RZ7BNPTJHHA9P63F,A1FP3SH704X01V,3QHK8ZVMIVJO62VCZADZO5TERHTBL8,M8HQ4,M8HQ4,3QHK8ZVMIVJO62VCZADZO5TERHTBL8,3QHK8ZVMIVJO62VCZADZO5TERHTBL8,338054,338054,2,0.04,"""",881.7000000476837,1,stim2,0,Counter-clockwise,false,"""",0.01,120,"""","""","2021-12-31 03:39:30",24.4.30.215,"Mozilla/5.0 (Windows NT 10.0; Win64; x64) AppleWebKit/537.36 (KHTML, like Gecko) Chrome/96.0.4664.110 Safari/537.36 Edg/96.0.1054.62",WebKit,Edge,96.0.1054.62,Windows,10.0,ac0f2dffeffaa78d35a552e03d03f0a8
17,2,"""",test_procedure,confidence_rating,html-slider-response,107,215681,0.0-11.0-0.0-2.21,3SD15I2WEBVYX2RZ7BNPTJHHA9P63F,A1FP3SH704X01V,3QHK8ZVMIVJO62VCZADZO5TERHTBL8,M8HQ4,M8HQ4,3QHK8ZVMIVJO62VCZADZO5TERHTBL8,3QHK8ZVMIVJO62VCZADZO5TERHTBL8,338054,338054,2,0.04,"""",1461.2999999523163,0,"<div id=""message-div""><p>How confident are you that your clockwise/counter-clockwise response just now was accurate? Please rate your confidence on the slider bar below.</p></div>","""","""","""",50,"""","""","""",0,"2021-12-31 03:39:30",24.4.30.215,"Mozilla/5.0 (Windows NT 10.0; Win64; x64) AppleWebKit/537.36 (KHTML, like Gecko) Chrome/96.0.4664.110 Safari/537.36 Edg/96.0.1054.62",WebKit,Edge,96.0.1054.62,Windows,10.0,ac0f2dffeffaa78d35a552e03d03f0a8
17,2,"""",test_procedure,fixation,html-keyboard-response,108,216182,0.0-11.0-0.0-0.22,3SD15I2WEBVYX2RZ7BNPTJHHA9P63F,A1FP3SH704X01V,3QHK8ZVMIVJO62VCZADZO5TERHTBL8,M8HQ4,M8HQ4,3QHK8ZVMIVJO62VCZADZO5TERHTBL8,3QHK8ZVMIVJO62VCZADZO5TERHTBL8,338054,338054,2,0.04,"""",null,null,"<div class = fixationbox><div class = fixation>+</div></div>","""","""","""","""","""","""","""","""","2021-12-31 03:39:30",24.4.30.215,"Mozilla/5.0 (Windows NT 10.0; Win64; x64) AppleWebKit/537.36 (KHTML, like Gecko) Chrome/96.0.4664.110 Safari/537.36 Edg/96.0.1054.62",WebKit,Edge,96.0.1054.62,Windows,10.0,ac0f2dffeffaa78d35a552e03d03f0a8
17,2,"""",test_procedure,stim_test,canvas-button-response,109,218410,0.0-11.0-0.0-1.22,3SD15I2WEBVYX2RZ7BNPTJHHA9P63F,A1FP3SH704X01V,3QHK8ZVMIVJO62VCZADZO5TERHTBL8,M8HQ4,M8HQ4,3QHK8ZVMIVJO62VCZADZO5TERHTBL8,3QHK8ZVMIVJO62VCZADZO5TERHTBL8,338054,338054,2,0.04,"""",2181.899999856949,0,stim4,0,Counter-clockwise,true,"""",0.3,120,"""","""","2021-12-31 03:39:30",24.4.30.215,"Mozilla/5.0 (Windows NT 10.0; Win64; x64) AppleWebKit/537.36 (KHTML, like Gecko) Chrome/96.0.4664.110 Safari/537.36 Edg/96.0.1054.62",WebKit,Edge,96.0.1054.62,Windows,10.0,ac0f2dffeffaa78d35a552e03d03f0a8
17,2,"""",test_procedure,confidence_rating,html-slider-response,110,220162,0.0-11.0-0.0-2.22,3SD15I2WEBVYX2RZ7BNPTJHHA9P63F,A1FP3SH704X01V,3QHK8ZVMIVJO62VCZADZO5TERHTBL8,M8HQ4,M8HQ4,3QHK8ZVMIVJO62VCZADZO5TERHTBL8,3QHK8ZVMIVJO62VCZADZO5TERHTBL8,338054,338054,2,0.04,"""",1751.2000000476837,0,"<div id=""message-div""><p>How confident are you that your clockwise/counter-clockwise response just now was accurate? Please rate your confidence on the slider bar below.</p></div>","""","""","""",50,"""","""","""",0,"2021-12-31 03:39:30",24.4.30.215,"Mozilla/5.0 (Windows NT 10.0; Win64; x64) AppleWebKit/537.36 (KHTML, like Gecko) Chrome/96.0.4664.110 Safari/537.36 Edg/96.0.1054.62",WebKit,Edge,96.0.1054.62,Windows,10.0,ac0f2dffeffaa78d35a552e03d03f0a8
17,2,"""",test_procedure,fixation,html-keyboard-response,111,220663,0.0-11.0-0.0-0.23,3SD15I2WEBVYX2RZ7BNPTJHHA9P63F,A1FP3SH704X01V,3QHK8ZVMIVJO62VCZADZO5TERHTBL8,M8HQ4,M8HQ4,3QHK8ZVMIVJO62VCZADZO5TERHTBL8,3QHK8ZVMIVJO62VCZADZO5TERHTBL8,338054,338054,2,0.04,"""",null,null,"<div class = fixationbox><div class = fixation>+</div></div>","""","""","""","""","""","""","""","""","2021-12-31 03:39:30",24.4.30.215,"Mozilla/5.0 (Windows NT 10.0; Win64; x64) AppleWebKit/537.36 (KHTML, like Gecko) Chrome/96.0.4664.110 Safari/537.36 Edg/96.0.1054.62",WebKit,Edge,96.0.1054.62,Windows,10.0,ac0f2dffeffaa78d35a552e03d03f0a8
17,2,"""",test_procedure,stim_test,canvas-button-response,112,221762,0.0-11.0-0.0-1.23,3SD15I2WEBVYX2RZ7BNPTJHHA9P63F,A1FP3SH704X01V,3QHK8ZVMIVJO62VCZADZO5TERHTBL8,M8HQ4,M8HQ4,3QHK8ZVMIVJO62VCZADZO5TERHTBL8,3QHK8ZVMIVJO62VCZADZO5TERHTBL8,338054,338054,2,0.04,"""",1047.8999998569489,1,stim3,1,Clockwise,true,"""",0.3,60,"""","""","2021-12-31 03:39:30",24.4.30.215,"Mozilla/5.0 (Windows NT 10.0; Win64; x64) AppleWebKit/537.36 (KHTML, like Gecko) Chrome/96.0.4664.110 Safari/537.36 Edg/96.0.1054.62",WebKit,Edge,96.0.1054.62,Windows,10.0,ac0f2dffeffaa78d35a552e03d03f0a8
17,2,"""",test_procedure,confidence_rating,html-slider-response,113,223978,0.0-11.0-0.0-2.23,3SD15I2WEBVYX2RZ7BNPTJHHA9P63F,A1FP3SH704X01V,3QHK8ZVMIVJO62VCZADZO5TERHTBL8,M8HQ4,M8HQ4,3QHK8ZVMIVJO62VCZADZO5TERHTBL8,3QHK8ZVMIVJO62VCZADZO5TERHTBL8,338054,338054,2,0.04,"""",2215,5,"<div id=""message-div""><p>How confident are you that your clockwise/counter-clockwise response just now was accurate? Please rate your confidence on the slider bar below.</p></div>","""","""","""",50,"""","""","""",5,"2021-12-31 03:39:30",24.4.30.215,"Mozilla/5.0 (Windows NT 10.0; Win64; x64) AppleWebKit/537.36 (KHTML, like Gecko) Chrome/96.0.4664.110 Safari/537.36 Edg/96.0.1054.62",WebKit,Edge,96.0.1054.62,Windows,10.0,ac0f2dffeffaa78d35a552e03d03f0a8
17,2,"""",test_procedure,rest_block,html-button-response,114,227795,0.0-11.0-0.0-3.23-0.23,3SD15I2WEBVYX2RZ7BNPTJHHA9P63F,A1FP3SH704X01V,3QHK8ZVMIVJO62VCZADZO5TERHTBL8,M8HQ4,M8HQ4,3QHK8ZVMIVJO62VCZADZO5TERHTBL8,3QHK8ZVMIVJO62VCZADZO5TERHTBL8,338054,338054,2,0.04,"""",3814.7000000476837,0,"[""<p>You responded correctly on 70.83% of the trials in the previous section.</p><p>Time to take a break!</p><p>Once you're ready, press the \"Continue\" button to continue.</p>""]","""","""","""","""","""","""","""","""","2021-12-31 03:39:30",24.4.30.215,"Mozilla/5.0 (Windows NT 10.0; Win64; x64) AppleWebKit/537.36 (KHTML, like Gecko) Chrome/96.0.4664.110 Safari/537.36 Edg/96.0.1054.62",WebKit,Edge,96.0.1054.62,Windows,10.0,ac0f2dffeffaa78d35a552e03d03f0a8
17,2,"""",test_procedure,fixation,html-keyboard-response,115,228299,0.0-11.0-0.1-0.24,3SD15I2WEBVYX2RZ7BNPTJHHA9P63F,A1FP3SH704X01V,3QHK8ZVMIVJO62VCZADZO5TERHTBL8,M8HQ4,M8HQ4,3QHK8ZVMIVJO62VCZADZO5TERHTBL8,3QHK8ZVMIVJO62VCZADZO5TERHTBL8,338054,338054,2,0.04,"""",null,null,"<div class = fixationbox><div class = fixation>+</div></div>","""","""","""","""","""","""","""","""","2021-12-31 03:39:30",24.4.30.215,"Mozilla/5.0 (Windows NT 10.0; Win64; x64) AppleWebKit/537.36 (KHTML, like Gecko) Chrome/96.0.4664.110 Safari/537.36 Edg/96.0.1054.62",WebKit,Edge,96.0.1054.62,Windows,10.0,ac0f2dffeffaa78d35a552e03d03f0a8
17,2,"""",test_procedure,stim_test,canvas-button-response,116,229291,0.0-11.0-0.1-1.24,3SD15I2WEBVYX2RZ7BNPTJHHA9P63F,A1FP3SH704X01V,3QHK8ZVMIVJO62VCZADZO5TERHTBL8,M8HQ4,M8HQ4,3QHK8ZVMIVJO62VCZADZO5TERHTBL8,3QHK8ZVMIVJO62VCZADZO5TERHTBL8,338054,338054,2,0.04,"""",943.0999999046326,0,stim4,0,Counter-clockwise,true,"""",0.3,120,"""","""","2021-12-31 03:39:30",24.4.30.215,"Mozilla/5.0 (Windows NT 10.0; Win64; x64) AppleWebKit/537.36 (KHTML, like Gecko) Chrome/96.0.4664.110 Safari/537.36 Edg/96.0.1054.62",WebKit,Edge,96.0.1054.62,Windows,10.0,ac0f2dffeffaa78d35a552e03d03f0a8
17,2,"""",test_procedure,confidence_rating,html-slider-response,117,230875,0.0-11.0-0.1-2.24,3SD15I2WEBVYX2RZ7BNPTJHHA9P63F,A1FP3SH704X01V,3QHK8ZVMIVJO62VCZADZO5TERHTBL8,M8HQ4,M8HQ4,3QHK8ZVMIVJO62VCZADZO5TERHTBL8,3QHK8ZVMIVJO62VCZADZO5TERHTBL8,338054,338054,2,0.04,"""",1583.6000001430511,0,"<div id=""message-div""><p>How confident are you that your clockwise/counter-clockwise response just now was accurate? Please rate your confidence on the slider bar below.</p></div>","""","""","""",50,"""","""","""",0,"2021-12-31 03:39:30",24.4.30.215,"Mozilla/5.0 (Windows NT 10.0; Win64; x64) AppleWebKit/537.36 (KHTML, like Gecko) Chrome/96.0.4664.110 Safari/537.36 Edg/96.0.1054.62",WebKit,Edge,96.0.1054.62,Windows,10.0,ac0f2dffeffaa78d35a552e03d03f0a8
17,2,"""",test_procedure,fixation,html-keyboard-response,118,231376,0.0-11.0-0.1-0.25,3SD15I2WEBVYX2RZ7BNPTJHHA9P63F,A1FP3SH704X01V,3QHK8ZVMIVJO62VCZADZO5TERHTBL8,M8HQ4,M8HQ4,3QHK8ZVMIVJO62VCZADZO5TERHTBL8,3QHK8ZVMIVJO62VCZADZO5TERHTBL8,338054,338054,2,0.04,"""",null,null,"<div class = fixationbox><div class = fixation>+</div></div>","""","""","""","""","""","""","""","""","2021-12-31 03:39:30",24.4.30.215,"Mozilla/5.0 (Windows NT 10.0; Win64; x64) AppleWebKit/537.36 (KHTML, like Gecko) Chrome/96.0.4664.110 Safari/537.36 Edg/96.0.1054.62",WebKit,Edge,96.0.1054.62,Windows,10.0,ac0f2dffeffaa78d35a552e03d03f0a8
17,2,"""",test_procedure,stim_test,canvas-button-response,119,232171,0.0-11.0-0.1-1.25,3SD15I2WEBVYX2RZ7BNPTJHHA9P63F,A1FP3SH704X01V,3QHK8ZVMIVJO62VCZADZO5TERHTBL8,M8HQ4,M8HQ4,3QHK8ZVMIVJO62VCZADZO5TERHTBL8,3QHK8ZVMIVJO62VCZADZO5TERHTBL8,338054,338054,2,0.04,"""",759.1999998092651,0,catchStim6,0,Counter-clockwise,true,"""",0.3,120,0.6,"""","2021-12-31 03:39:30",24.4.30.215,"Mozilla/5.0 (Windows NT 10.0; Win64; x64) AppleWebKit/537.36 (KHTML, like Gecko) Chrome/96.0.4664.110 Safari/537.36 Edg/96.0.1054.62",WebKit,Edge,96.0.1054.62,Windows,10.0,ac0f2dffeffaa78d35a552e03d03f0a8
17,2,"""",test_procedure,confidence_rating,html-slider-response,120,233899,0.0-11.0-0.1-2.25,3SD15I2WEBVYX2RZ7BNPTJHHA9P63F,A1FP3SH704X01V,3QHK8ZVMIVJO62VCZADZO5TERHTBL8,M8HQ4,M8HQ4,3QHK8ZVMIVJO62VCZADZO5TERHTBL8,3QHK8ZVMIVJO62VCZADZO5TERHTBL8,338054,338054,2,0.04,"""",1727,100,"<div id=""message-div""><p>How confident are you that your clockwise/counter-clockwise response just now was accurate? Please rate your confidence on the slider bar below.</p></div>","""","""","""",50,"""","""","""",100,"2021-12-31 03:39:30",24.4.30.215,"Mozilla/5.0 (Windows NT 10.0; Win64; x64) AppleWebKit/537.36 (KHTML, like Gecko) Chrome/96.0.4664.110 Safari/537.36 Edg/96.0.1054.62",WebKit,Edge,96.0.1054.62,Windows,10.0,ac0f2dffeffaa78d35a552e03d03f0a8
17,2,"""",test_procedure,fixation,html-keyboard-response,121,234403,0.0-11.0-0.1-0.26,3SD15I2WEBVYX2RZ7BNPTJHHA9P63F,A1FP3SH704X01V,3QHK8ZVMIVJO62VCZADZO5TERHTBL8,M8HQ4,M8HQ4,3QHK8ZVMIVJO62VCZADZO5TERHTBL8,3QHK8ZVMIVJO62VCZADZO5TERHTBL8,338054,338054,2,0.04,"""",null,null,"<div class = fixationbox><div class = fixation>+</div></div>","""","""","""","""","""","""","""","""","2021-12-31 03:39:30",24.4.30.215,"Mozilla/5.0 (Windows NT 10.0; Win64; x64) AppleWebKit/537.36 (KHTML, like Gecko) Chrome/96.0.4664.110 Safari/537.36 Edg/96.0.1054.62",WebKit,Edge,96.0.1054.62,Windows,10.0,ac0f2dffeffaa78d35a552e03d03f0a8
17,2,"""",test_procedure,stim_test,canvas-button-response,122,235283,0.0-11.0-0.1-1.26,3SD15I2WEBVYX2RZ7BNPTJHHA9P63F,A1FP3SH704X01V,3QHK8ZVMIVJO62VCZADZO5TERHTBL8,M8HQ4,M8HQ4,3QHK8ZVMIVJO62VCZADZO5TERHTBL8,3QHK8ZVMIVJO62VCZADZO5TERHTBL8,338054,338054,2,0.04,"""",832.1000001430511,1,catchStim3,1,Clockwise,true,"""",0.01,60,0.001,"""","2021-12-31 03:39:30",24.4.30.215,"Mozilla/5.0 (Windows NT 10.0; Win64; x64) AppleWebKit/537.36 (KHTML, like Gecko) Chrome/96.0.4664.110 Safari/537.36 Edg/96.0.1054.62",WebKit,Edge,96.0.1054.62,Windows,10.0,ac0f2dffeffaa78d35a552e03d03f0a8
17,2,"""",test_procedure,confidence_rating,html-slider-response,123,237516,0.0-11.0-0.1-2.26,3SD15I2WEBVYX2RZ7BNPTJHHA9P63F,A1FP3SH704X01V,3QHK8ZVMIVJO62VCZADZO5TERHTBL8,M8HQ4,M8HQ4,3QHK8ZVMIVJO62VCZADZO5TERHTBL8,3QHK8ZVMIVJO62VCZADZO5TERHTBL8,338054,338054,2,0.04,"""",2233,0,"<div id=""message-div""><p>How confident are you that your clockwise/counter-clockwise response just now was accurate? Please rate your confidence on the slider bar below.</p></div>","""","""","""",50,"""","""","""",0,"2021-12-31 03:39:30",24.4.30.215,"Mozilla/5.0 (Windows NT 10.0; Win64; x64) AppleWebKit/537.36 (KHTML, like Gecko) Chrome/96.0.4664.110 Safari/537.36 Edg/96.0.1054.62",WebKit,Edge,96.0.1054.62,Windows,10.0,ac0f2dffeffaa78d35a552e03d03f0a8
17,2,"""",test_procedure,fixation,html-keyboard-response,124,238017,0.0-11.0-0.1-0.27,3SD15I2WEBVYX2RZ7BNPTJHHA9P63F,A1FP3SH704X01V,3QHK8ZVMIVJO62VCZADZO5TERHTBL8,M8HQ4,M8HQ4,3QHK8ZVMIVJO62VCZADZO5TERHTBL8,3QHK8ZVMIVJO62VCZADZO5TERHTBL8,338054,338054,2,0.04,"""",null,null,"<div class = fixationbox><div class = fixation>+</div></div>","""","""","""","""","""","""","""","""","2021-12-31 03:39:30",24.4.30.215,"Mozilla/5.0 (Windows NT 10.0; Win64; x64) AppleWebKit/537.36 (KHTML, like Gecko) Chrome/96.0.4664.110 Safari/537.36 Edg/96.0.1054.62",WebKit,Edge,96.0.1054.62,Windows,10.0,ac0f2dffeffaa78d35a552e03d03f0a8
17,2,"""",test_procedure,stim_test,canvas-button-response,125,238724,0.0-11.0-0.1-1.27,3SD15I2WEBVYX2RZ7BNPTJHHA9P63F,A1FP3SH704X01V,3QHK8ZVMIVJO62VCZADZO5TERHTBL8,M8HQ4,M8HQ4,3QHK8ZVMIVJO62VCZADZO5TERHTBL8,3QHK8ZVMIVJO62VCZADZO5TERHTBL8,338054,338054,2,0.04,"""",660.2000000476837,0,catchStim2,0,Counter-clockwise,true,"""",0.01,120,0.6,"""","2021-12-31 03:39:30",24.4.30.215,"Mozilla/5.0 (Windows NT 10.0; Win64; x64) AppleWebKit/537.36 (KHTML, like Gecko) Chrome/96.0.4664.110 Safari/537.36 Edg/96.0.1054.62",WebKit,Edge,96.0.1054.62,Windows,10.0,ac0f2dffeffaa78d35a552e03d03f0a8
17,2,"""",test_procedure,confidence_rating,html-slider-response,126,240324,0.0-11.0-0.1-2.27,3SD15I2WEBVYX2RZ7BNPTJHHA9P63F,A1FP3SH704X01V,3QHK8ZVMIVJO62VCZADZO5TERHTBL8,M8HQ4,M8HQ4,3QHK8ZVMIVJO62VCZADZO5TERHTBL8,3QHK8ZVMIVJO62VCZADZO5TERHTBL8,338054,338054,2,0.04,"""",1598.5,87,"<div id=""message-div""><p>How confident are you that your clockwise/counter-clockwise response just now was accurate? Please rate your confidence on the slider bar below.</p></div>","""","""","""",50,"""","""","""",87,"2021-12-31 03:39:30",24.4.30.215,"Mozilla/5.0 (Windows NT 10.0; Win64; x64) AppleWebKit/537.36 (KHTML, like Gecko) Chrome/96.0.4664.110 Safari/537.36 Edg/96.0.1054.62",WebKit,Edge,96.0.1054.62,Windows,10.0,ac0f2dffeffaa78d35a552e03d03f0a8
17,2,"""",test_procedure,fixation,html-keyboard-response,127,240828,0.0-11.0-0.1-0.28,3SD15I2WEBVYX2RZ7BNPTJHHA9P63F,A1FP3SH704X01V,3QHK8ZVMIVJO62VCZADZO5TERHTBL8,M8HQ4,M8HQ4,3QHK8ZVMIVJO62VCZADZO5TERHTBL8,3QHK8ZVMIVJO62VCZADZO5TERHTBL8,338054,338054,2,0.04,"""",null,null,"<div class = fixationbox><div class = fixation>+</div></div>","""","""","""","""","""","""","""","""","2021-12-31 03:39:30",24.4.30.215,"Mozilla/5.0 (Windows NT 10.0; Win64; x64) AppleWebKit/537.36 (KHTML, like Gecko) Chrome/96.0.4664.110 Safari/537.36 Edg/96.0.1054.62",WebKit,Edge,96.0.1054.62,Windows,10.0,ac0f2dffeffaa78d35a552e03d03f0a8
17,2,"""",test_procedure,stim_test,canvas-button-response,128,241820,0.0-11.0-0.1-1.28,3SD15I2WEBVYX2RZ7BNPTJHHA9P63F,A1FP3SH704X01V,3QHK8ZVMIVJO62VCZADZO5TERHTBL8,M8HQ4,M8HQ4,3QHK8ZVMIVJO62VCZADZO5TERHTBL8,3QHK8ZVMIVJO62VCZADZO5TERHTBL8,338054,338054,2,0.04,"""",963.7000000476837,1,stim1,1,Clockwise,true,"""",0.01,60,"""","""","2021-12-31 03:39:30",24.4.30.215,"Mozilla/5.0 (Windows NT 10.0; Win64; x64) AppleWebKit/537.36 (KHTML, like Gecko) Chrome/96.0.4664.110 Safari/537.36 Edg/96.0.1054.62",WebKit,Edge,96.0.1054.62,Windows,10.0,ac0f2dffeffaa78d35a552e03d03f0a8
17,2,"""",test_procedure,confidence_rating,html-slider-response,129,244853,0.0-11.0-0.1-2.28,3SD15I2WEBVYX2RZ7BNPTJHHA9P63F,A1FP3SH704X01V,3QHK8ZVMIVJO62VCZADZO5TERHTBL8,M8HQ4,M8HQ4,3QHK8ZVMIVJO62VCZADZO5TERHTBL8,3QHK8ZVMIVJO62VCZADZO5TERHTBL8,338054,338054,2,0.04,"""",3031.7000000476837,0,"<div id=""message-div""><p>How confident are you that your clockwise/counter-clockwise response just now was accurate? Please rate your confidence on the slider bar below.</p></div>","""","""","""",50,"""","""","""",0,"2021-12-31 03:39:30",24.4.30.215,"Mozilla/5.0 (Windows NT 10.0; Win64; x64) AppleWebKit/537.36 (KHTML, like Gecko) Chrome/96.0.4664.110 Safari/537.36 Edg/96.0.1054.62",WebKit,Edge,96.0.1054.62,Windows,10.0,ac0f2dffeffaa78d35a552e03d03f0a8
17,2,"""",test_procedure,fixation,html-keyboard-response,130,245354,0.0-11.0-0.1-0.29,3SD15I2WEBVYX2RZ7BNPTJHHA9P63F,A1FP3SH704X01V,3QHK8ZVMIVJO62VCZADZO5TERHTBL8,M8HQ4,M8HQ4,3QHK8ZVMIVJO62VCZADZO5TERHTBL8,3QHK8ZVMIVJO62VCZADZO5TERHTBL8,338054,338054,2,0.04,"""",null,null,"<div class = fixationbox><div class = fixation>+</div></div>","""","""","""","""","""","""","""","""","2021-12-31 03:39:30",24.4.30.215,"Mozilla/5.0 (Windows NT 10.0; Win64; x64) AppleWebKit/537.36 (KHTML, like Gecko) Chrome/96.0.4664.110 Safari/537.36 Edg/96.0.1054.62",WebKit,Edge,96.0.1054.62,Windows,10.0,ac0f2dffeffaa78d35a552e03d03f0a8
17,2,"""",test_procedure,stim_test,canvas-button-response,131,246445,0.0-11.0-0.1-1.29,3SD15I2WEBVYX2RZ7BNPTJHHA9P63F,A1FP3SH704X01V,3QHK8ZVMIVJO62VCZADZO5TERHTBL8,M8HQ4,M8HQ4,3QHK8ZVMIVJO62VCZADZO5TERHTBL8,3QHK8ZVMIVJO62VCZADZO5TERHTBL8,338054,338054,2,0.04,"""",1065.3999998569489,0,stim3,1,Clockwise,false,"""",0.3,60,"""","""","2021-12-31 03:39:30",24.4.30.215,"Mozilla/5.0 (Windows NT 10.0; Win64; x64) AppleWebKit/537.36 (KHTML, like Gecko) Chrome/96.0.4664.110 Safari/537.36 Edg/96.0.1054.62",WebKit,Edge,96.0.1054.62,Windows,10.0,ac0f2dffeffaa78d35a552e03d03f0a8
17,2,"""",test_procedure,confidence_rating,html-slider-response,132,247893,0.0-11.0-0.1-2.29,3SD15I2WEBVYX2RZ7BNPTJHHA9P63F,A1FP3SH704X01V,3QHK8ZVMIVJO62VCZADZO5TERHTBL8,M8HQ4,M8HQ4,3QHK8ZVMIVJO62VCZADZO5TERHTBL8,3QHK8ZVMIVJO62VCZADZO5TERHTBL8,338054,338054,2,0.04,"""",1447.2999999523163,0,"<div id=""message-div""><p>How confident are you that your clockwise/counter-clockwise response just now was accurate? Please rate your confidence on the slider bar below.</p></div>","""","""","""",50,"""","""","""",0,"2021-12-31 03:39:30",24.4.30.215,"Mozilla/5.0 (Windows NT 10.0; Win64; x64) AppleWebKit/537.36 (KHTML, like Gecko) Chrome/96.0.4664.110 Safari/537.36 Edg/96.0.1054.62",WebKit,Edge,96.0.1054.62,Windows,10.0,ac0f2dffeffaa78d35a552e03d03f0a8
17,2,"""",test_procedure,fixation,html-keyboard-response,133,248406,0.0-11.0-0.1-0.30,3SD15I2WEBVYX2RZ7BNPTJHHA9P63F,A1FP3SH704X01V,3QHK8ZVMIVJO62VCZADZO5TERHTBL8,M8HQ4,M8HQ4,3QHK8ZVMIVJO62VCZADZO5TERHTBL8,3QHK8ZVMIVJO62VCZADZO5TERHTBL8,338054,338054,2,0.04,"""",null,null,"<div class = fixationbox><div class = fixation>+</div></div>","""","""","""","""","""","""","""","""","2021-12-31 03:39:30",24.4.30.215,"Mozilla/5.0 (Windows NT 10.0; Win64; x64) AppleWebKit/537.36 (KHTML, like Gecko) Chrome/96.0.4664.110 Safari/537.36 Edg/96.0.1054.62",WebKit,Edge,96.0.1054.62,Windows,10.0,ac0f2dffeffaa78d35a552e03d03f0a8
17,2,"""",test_procedure,stim_test,canvas-button-response,134,249205,0.0-11.0-0.1-1.30,3SD15I2WEBVYX2RZ7BNPTJHHA9P63F,A1FP3SH704X01V,3QHK8ZVMIVJO62VCZADZO5TERHTBL8,M8HQ4,M8HQ4,3QHK8ZVMIVJO62VCZADZO5TERHTBL8,3QHK8ZVMIVJO62VCZADZO5TERHTBL8,338054,338054,2,0.04,"""",769,0,stim2,0,Counter-clockwise,true,"""",0.01,120,"""","""","2021-12-31 03:39:30",24.4.30.215,"Mozilla/5.0 (Windows NT 10.0; Win64; x64) AppleWebKit/537.36 (KHTML, like Gecko) Chrome/96.0.4664.110 Safari/537.36 Edg/96.0.1054.62",WebKit,Edge,96.0.1054.62,Windows,10.0,ac0f2dffeffaa78d35a552e03d03f0a8
17,2,"""",test_procedure,confidence_rating,html-slider-response,135,251973,0.0-11.0-0.1-2.30,3SD15I2WEBVYX2RZ7BNPTJHHA9P63F,A1FP3SH704X01V,3QHK8ZVMIVJO62VCZADZO5TERHTBL8,M8HQ4,M8HQ4,3QHK8ZVMIVJO62VCZADZO5TERHTBL8,3QHK8ZVMIVJO62VCZADZO5TERHTBL8,338054,338054,2,0.04,"""",2766.7999999523163,0,"<div id=""message-div""><p>How confident are you that your clockwise/counter-clockwise response just now was accurate? Please rate your confidence on the slider bar below.</p></div>","""","""","""",50,"""","""","""",0,"2021-12-31 03:39:30",24.4.30.215,"Mozilla/5.0 (Windows NT 10.0; Win64; x64) AppleWebKit/537.36 (KHTML, like Gecko) Chrome/96.0.4664.110 Safari/537.36 Edg/96.0.1054.62",WebKit,Edge,96.0.1054.62,Windows,10.0,ac0f2dffeffaa78d35a552e03d03f0a8
17,2,"""",test_procedure,fixation,html-keyboard-response,136,252475,0.0-11.0-0.1-0.31,3SD15I2WEBVYX2RZ7BNPTJHHA9P63F,A1FP3SH704X01V,3QHK8ZVMIVJO62VCZADZO5TERHTBL8,M8HQ4,M8HQ4,3QHK8ZVMIVJO62VCZADZO5TERHTBL8,3QHK8ZVMIVJO62VCZADZO5TERHTBL8,338054,338054,2,0.04,"""",null,null,"<div class = fixationbox><div class = fixation>+</div></div>","""","""","""","""","""","""","""","""","2021-12-31 03:39:30",24.4.30.215,"Mozilla/5.0 (Windows NT 10.0; Win64; x64) AppleWebKit/537.36 (KHTML, like Gecko) Chrome/96.0.4664.110 Safari/537.36 Edg/96.0.1054.62",WebKit,Edge,96.0.1054.62,Windows,10.0,ac0f2dffeffaa78d35a552e03d03f0a8
17,2,"""",test_procedure,stim_test,canvas-button-response,137,253246,0.0-11.0-0.1-1.31,3SD15I2WEBVYX2RZ7BNPTJHHA9P63F,A1FP3SH704X01V,3QHK8ZVMIVJO62VCZADZO5TERHTBL8,M8HQ4,M8HQ4,3QHK8ZVMIVJO62VCZADZO5TERHTBL8,3QHK8ZVMIVJO62VCZADZO5TERHTBL8,338054,338054,2,0.04,"""",724.5,0,catchStim7,1,Clockwise,false,"""",0.3,60,0.001,"""","2021-12-31 03:39:30",24.4.30.215,"Mozilla/5.0 (Windows NT 10.0; Win64; x64) AppleWebKit/537.36 (KHTML, like Gecko) Chrome/96.0.4664.110 Safari/537.36 Edg/96.0.1054.62",WebKit,Edge,96.0.1054.62,Windows,10.0,ac0f2dffeffaa78d35a552e03d03f0a8
17,2,"""",test_procedure,confidence_rating,html-slider-response,138,255135,0.0-11.0-0.1-2.31,3SD15I2WEBVYX2RZ7BNPTJHHA9P63F,A1FP3SH704X01V,3QHK8ZVMIVJO62VCZADZO5TERHTBL8,M8HQ4,M8HQ4,3QHK8ZVMIVJO62VCZADZO5TERHTBL8,3QHK8ZVMIVJO62VCZADZO5TERHTBL8,338054,338054,2,0.04,"""",1888,0,"<div id=""message-div""><p>How confident are you that your clockwise/counter-clockwise response just now was accurate? Please rate your confidence on the slider bar below.</p></div>","""","""","""",50,"""","""","""",0,"2021-12-31 03:39:30",24.4.30.215,"Mozilla/5.0 (Windows NT 10.0; Win64; x64) AppleWebKit/537.36 (KHTML, like Gecko) Chrome/96.0.4664.110 Safari/537.36 Edg/96.0.1054.62",WebKit,Edge,96.0.1054.62,Windows,10.0,ac0f2dffeffaa78d35a552e03d03f0a8
17,2,"""",test_procedure,fixation,html-keyboard-response,139,255639,0.0-11.0-0.1-0.32,3SD15I2WEBVYX2RZ7BNPTJHHA9P63F,A1FP3SH704X01V,3QHK8ZVMIVJO62VCZADZO5TERHTBL8,M8HQ4,M8HQ4,3QHK8ZVMIVJO62VCZADZO5TERHTBL8,3QHK8ZVMIVJO62VCZADZO5TERHTBL8,338054,338054,2,0.04,"""",null,null,"<div class = fixationbox><div class = fixation>+</div></div>","""","""","""","""","""","""","""","""","2021-12-31 03:39:30",24.4.30.215,"Mozilla/5.0 (Windows NT 10.0; Win64; x64) AppleWebKit/537.36 (KHTML, like Gecko) Chrome/96.0.4664.110 Safari/537.36 Edg/96.0.1054.62",WebKit,Edge,96.0.1054.62,Windows,10.0,ac0f2dffeffaa78d35a552e03d03f0a8
17,2,"""",test_procedure,stim_test,canvas-button-response,140,256494,0.0-11.0-0.1-1.32,3SD15I2WEBVYX2RZ7BNPTJHHA9P63F,A1FP3SH704X01V,3QHK8ZVMIVJO62VCZADZO5TERHTBL8,M8HQ4,M8HQ4,3QHK8ZVMIVJO62VCZADZO5TERHTBL8,3QHK8ZVMIVJO62VCZADZO5TERHTBL8,338054,338054,2,0.04,"""",806.5999999046326,1,catchStim4,0,Counter-clockwise,false,"""",0.01,120,0.001,"""","2021-12-31 03:39:30",24.4.30.215,"Mozilla/5.0 (Windows NT 10.0; Win64; x64) AppleWebKit/537.36 (KHTML, like Gecko) Chrome/96.0.4664.110 Safari/537.36 Edg/96.0.1054.62",WebKit,Edge,96.0.1054.62,Windows,10.0,ac0f2dffeffaa78d35a552e03d03f0a8
17,2,"""",test_procedure,confidence_rating,html-slider-response,141,258046,0.0-11.0-0.1-2.32,3SD15I2WEBVYX2RZ7BNPTJHHA9P63F,A1FP3SH704X01V,3QHK8ZVMIVJO62VCZADZO5TERHTBL8,M8HQ4,M8HQ4,3QHK8ZVMIVJO62VCZADZO5TERHTBL8,3QHK8ZVMIVJO62VCZADZO5TERHTBL8,338054,338054,2,0.04,"""",1550.6999998092651,0,"<div id=""message-div""><p>How confident are you that your clockwise/counter-clockwise response just now was accurate? Please rate your confidence on the slider bar below.</p></div>","""","""","""",50,"""","""","""",0,"2021-12-31 03:39:30",24.4.30.215,"Mozilla/5.0 (Windows NT 10.0; Win64; x64) AppleWebKit/537.36 (KHTML, like Gecko) Chrome/96.0.4664.110 Safari/537.36 Edg/96.0.1054.62",WebKit,Edge,96.0.1054.62,Windows,10.0,ac0f2dffeffaa78d35a552e03d03f0a8
17,2,"""",test_procedure,fixation,html-keyboard-response,142,258559,0.0-11.0-0.1-0.33,3SD15I2WEBVYX2RZ7BNPTJHHA9P63F,A1FP3SH704X01V,3QHK8ZVMIVJO62VCZADZO5TERHTBL8,M8HQ4,M8HQ4,3QHK8ZVMIVJO62VCZADZO5TERHTBL8,3QHK8ZVMIVJO62VCZADZO5TERHTBL8,338054,338054,2,0.04,"""",null,null,"<div class = fixationbox><div class = fixation>+</div></div>","""","""","""","""","""","""","""","""","2021-12-31 03:39:30",24.4.30.215,"Mozilla/5.0 (Windows NT 10.0; Win64; x64) AppleWebKit/537.36 (KHTML, like Gecko) Chrome/96.0.4664.110 Safari/537.36 Edg/96.0.1054.62",WebKit,Edge,96.0.1054.62,Windows,10.0,ac0f2dffeffaa78d35a552e03d03f0a8
17,2,"""",test_procedure,stim_test,canvas-button-response,143,259366,0.0-11.0-0.1-1.33,3SD15I2WEBVYX2RZ7BNPTJHHA9P63F,A1FP3SH704X01V,3QHK8ZVMIVJO62VCZADZO5TERHTBL8,M8HQ4,M8HQ4,3QHK8ZVMIVJO62VCZADZO5TERHTBL8,3QHK8ZVMIVJO62VCZADZO5TERHTBL8,338054,338054,2,0.04,"""",776.5999999046326,0,stim1,1,Clockwise,false,"""",0.01,60,"""","""","2021-12-31 03:39:30",24.4.30.215,"Mozilla/5.0 (Windows NT 10.0; Win64; x64) AppleWebKit/537.36 (KHTML, like Gecko) Chrome/96.0.4664.110 Safari/537.36 Edg/96.0.1054.62",WebKit,Edge,96.0.1054.62,Windows,10.0,ac0f2dffeffaa78d35a552e03d03f0a8
17,2,"""",test_procedure,confidence_rating,html-slider-response,144,260790,0.0-11.0-0.1-2.33,3SD15I2WEBVYX2RZ7BNPTJHHA9P63F,A1FP3SH704X01V,3QHK8ZVMIVJO62VCZADZO5TERHTBL8,M8HQ4,M8HQ4,3QHK8ZVMIVJO62VCZADZO5TERHTBL8,3QHK8ZVMIVJO62VCZADZO5TERHTBL8,338054,338054,2,0.04,"""",1423,0,"<div id=""message-div""><p>How confident are you that your clockwise/counter-clockwise response just now was accurate? Please rate your confidence on the slider bar below.</p></div>","""","""","""",50,"""","""","""",0,"2021-12-31 03:39:30",24.4.30.215,"Mozilla/5.0 (Windows NT 10.0; Win64; x64) AppleWebKit/537.36 (KHTML, like Gecko) Chrome/96.0.4664.110 Safari/537.36 Edg/96.0.1054.62",WebKit,Edge,96.0.1054.62,Windows,10.0,ac0f2dffeffaa78d35a552e03d03f0a8
17,2,"""",test_procedure,fixation,html-keyboard-response,145,261292,0.0-11.0-0.1-0.34,3SD15I2WEBVYX2RZ7BNPTJHHA9P63F,A1FP3SH704X01V,3QHK8ZVMIVJO62VCZADZO5TERHTBL8,M8HQ4,M8HQ4,3QHK8ZVMIVJO62VCZADZO5TERHTBL8,3QHK8ZVMIVJO62VCZADZO5TERHTBL8,338054,338054,2,0.04,"""",null,null,"<div class = fixationbox><div class = fixation>+</div></div>","""","""","""","""","""","""","""","""","2021-12-31 03:39:30",24.4.30.215,"Mozilla/5.0 (Windows NT 10.0; Win64; x64) AppleWebKit/537.36 (KHTML, like Gecko) Chrome/96.0.4664.110 Safari/537.36 Edg/96.0.1054.62",WebKit,Edge,96.0.1054.62,Windows,10.0,ac0f2dffeffaa78d35a552e03d03f0a8
17,2,"""",test_procedure,stim_test,canvas-button-response,146,262174,0.0-11.0-0.1-1.34,3SD15I2WEBVYX2RZ7BNPTJHHA9P63F,A1FP3SH704X01V,3QHK8ZVMIVJO62VCZADZO5TERHTBL8,M8HQ4,M8HQ4,3QHK8ZVMIVJO62VCZADZO5TERHTBL8,3QHK8ZVMIVJO62VCZADZO5TERHTBL8,338054,338054,2,0.04,"""",848.5999999046326,1,catchStim1,1,Clockwise,true,"""",0.01,60,0.6,"""","2021-12-31 03:39:30",24.4.30.215,"Mozilla/5.0 (Windows NT 10.0; Win64; x64) AppleWebKit/537.36 (KHTML, like Gecko) Chrome/96.0.4664.110 Safari/537.36 Edg/96.0.1054.62",WebKit,Edge,96.0.1054.62,Windows,10.0,ac0f2dffeffaa78d35a552e03d03f0a8
17,2,"""",test_procedure,confidence_rating,html-slider-response,147,264047,0.0-11.0-0.1-2.34,3SD15I2WEBVYX2RZ7BNPTJHHA9P63F,A1FP3SH704X01V,3QHK8ZVMIVJO62VCZADZO5TERHTBL8,M8HQ4,M8HQ4,3QHK8ZVMIVJO62VCZADZO5TERHTBL8,3QHK8ZVMIVJO62VCZADZO5TERHTBL8,338054,338054,2,0.04,"""",1871.8000001907349,0,"<div id=""message-div""><p>How confident are you that your clockwise/counter-clockwise response just now was accurate? Please rate your confidence on the slider bar below.</p></div>","""","""","""",50,"""","""","""",0,"2021-12-31 03:39:30",24.4.30.215,"Mozilla/5.0 (Windows NT 10.0; Win64; x64) AppleWebKit/537.36 (KHTML, like Gecko) Chrome/96.0.4664.110 Safari/537.36 Edg/96.0.1054.62",WebKit,Edge,96.0.1054.62,Windows,10.0,ac0f2dffeffaa78d35a552e03d03f0a8
17,2,"""",test_procedure,fixation,html-keyboard-response,148,264548,0.0-11.0-0.1-0.35,3SD15I2WEBVYX2RZ7BNPTJHHA9P63F,A1FP3SH704X01V,3QHK8ZVMIVJO62VCZADZO5TERHTBL8,M8HQ4,M8HQ4,3QHK8ZVMIVJO62VCZADZO5TERHTBL8,3QHK8ZVMIVJO62VCZADZO5TERHTBL8,338054,338054,2,0.04,"""",null,null,"<div class = fixationbox><div class = fixation>+</div></div>","""","""","""","""","""","""","""","""","2021-12-31 03:39:30",24.4.30.215,"Mozilla/5.0 (Windows NT 10.0; Win64; x64) AppleWebKit/537.36 (KHTML, like Gecko) Chrome/96.0.4664.110 Safari/537.36 Edg/96.0.1054.62",WebKit,Edge,96.0.1054.62,Windows,10.0,ac0f2dffeffaa78d35a552e03d03f0a8
17,2,"""",test_procedure,stim_test,canvas-button-response,149,265471,0.0-11.0-0.1-1.35,3SD15I2WEBVYX2RZ7BNPTJHHA9P63F,A1FP3SH704X01V,3QHK8ZVMIVJO62VCZADZO5TERHTBL8,M8HQ4,M8HQ4,3QHK8ZVMIVJO62VCZADZO5TERHTBL8,3QHK8ZVMIVJO62VCZADZO5TERHTBL8,338054,338054,2,0.04,"""",894.4000000953674,0,stim1,1,Clockwise,false,"""",0.01,60,"""","""","2021-12-31 03:39:30",24.4.30.215,"Mozilla/5.0 (Windows NT 10.0; Win64; x64) AppleWebKit/537.36 (KHTML, like Gecko) Chrome/96.0.4664.110 Safari/537.36 Edg/96.0.1054.62",WebKit,Edge,96.0.1054.62,Windows,10.0,ac0f2dffeffaa78d35a552e03d03f0a8
17,2,"""",test_procedure,confidence_rating,html-slider-response,150,267015,0.0-11.0-0.1-2.35,3SD15I2WEBVYX2RZ7BNPTJHHA9P63F,A1FP3SH704X01V,3QHK8ZVMIVJO62VCZADZO5TERHTBL8,M8HQ4,M8HQ4,3QHK8ZVMIVJO62VCZADZO5TERHTBL8,3QHK8ZVMIVJO62VCZADZO5TERHTBL8,338054,338054,2,0.04,"""",1543.2999999523163,0,"<div id=""message-div""><p>How confident are you that your clockwise/counter-clockwise response just now was accurate? Please rate your confidence on the slider bar below.</p></div>","""","""","""",50,"""","""","""",0,"2021-12-31 03:39:30",24.4.30.215,"Mozilla/5.0 (Windows NT 10.0; Win64; x64) AppleWebKit/537.36 (KHTML, like Gecko) Chrome/96.0.4664.110 Safari/537.36 Edg/96.0.1054.62",WebKit,Edge,96.0.1054.62,Windows,10.0,ac0f2dffeffaa78d35a552e03d03f0a8
17,2,"""",test_procedure,fixation,html-keyboard-response,151,267516,0.0-11.0-0.1-0.36,3SD15I2WEBVYX2RZ7BNPTJHHA9P63F,A1FP3SH704X01V,3QHK8ZVMIVJO62VCZADZO5TERHTBL8,M8HQ4,M8HQ4,3QHK8ZVMIVJO62VCZADZO5TERHTBL8,3QHK8ZVMIVJO62VCZADZO5TERHTBL8,338054,338054,2,0.04,"""",null,null,"<div class = fixationbox><div class = fixation>+</div></div>","""","""","""","""","""","""","""","""","2021-12-31 03:39:30",24.4.30.215,"Mozilla/5.0 (Windows NT 10.0; Win64; x64) AppleWebKit/537.36 (KHTML, like Gecko) Chrome/96.0.4664.110 Safari/537.36 Edg/96.0.1054.62",WebKit,Edge,96.0.1054.62,Windows,10.0,ac0f2dffeffaa78d35a552e03d03f0a8
17,2,"""",test_procedure,stim_test,canvas-button-response,152,268648,0.0-11.0-0.1-1.36,3SD15I2WEBVYX2RZ7BNPTJHHA9P63F,A1FP3SH704X01V,3QHK8ZVMIVJO62VCZADZO5TERHTBL8,M8HQ4,M8HQ4,3QHK8ZVMIVJO62VCZADZO5TERHTBL8,3QHK8ZVMIVJO62VCZADZO5TERHTBL8,338054,338054,2,0.04,"""",1099.5,1,catchStim5,1,Clockwise,true,"""",0.3,60,0.6,"""","2021-12-31 03:39:30",24.4.30.215,"Mozilla/5.0 (Windows NT 10.0; Win64; x64) AppleWebKit/537.36 (KHTML, like Gecko) Chrome/96.0.4664.110 Safari/537.36 Edg/96.0.1054.62",WebKit,Edge,96.0.1054.62,Windows,10.0,ac0f2dffeffaa78d35a552e03d03f0a8
17,2,"""",test_procedure,confidence_rating,html-slider-response,153,270592,0.0-11.0-0.1-2.36,3SD15I2WEBVYX2RZ7BNPTJHHA9P63F,A1FP3SH704X01V,3QHK8ZVMIVJO62VCZADZO5TERHTBL8,M8HQ4,M8HQ4,3QHK8ZVMIVJO62VCZADZO5TERHTBL8,3QHK8ZVMIVJO62VCZADZO5TERHTBL8,338054,338054,2,0.04,"""",1943,4,"<div id=""message-div""><p>How confident are you that your clockwise/counter-clockwise response just now was accurate? Please rate your confidence on the slider bar below.</p></div>","""","""","""",50,"""","""","""",4,"2021-12-31 03:39:30",24.4.30.215,"Mozilla/5.0 (Windows NT 10.0; Win64; x64) AppleWebKit/537.36 (KHTML, like Gecko) Chrome/96.0.4664.110 Safari/537.36 Edg/96.0.1054.62",WebKit,Edge,96.0.1054.62,Windows,10.0,ac0f2dffeffaa78d35a552e03d03f0a8
