run_id,condition,success,exp_stage,trial_id,trial_type,trial_index,time_elapsed,internal_node_id,hitId,workerId,assignmentId,a,tp_a,b,tp_b,c,tp_c,conditionmyown,cen_signal_contrast_stim,view_history,rt,response,stimulus,correct_response,correct_response_in_clockwise_or_counterclockwise,correct,slider_start,ctx_signal_contrast,cen_angle_in_degree,cen_signal_contrast_catchStim,confidence,recorded_at,ip,user_agent,device,browser,browser_version,platform,platform_version,source_code_version
20,3,true,pre-exp,fullscreen_starts,fullscreen,0,8660,0.0-0.0,3PKVGQTFJQLSZOM7OKJDU84QFXXYRA,A147F5PJTHOB8A,3VSOLARPKKAO25QQVKV31D473VZ93I,PLSV4,PLSV4,3VSOLARPKKAO25QQVKV31D473VZ93I,3VSOLARPKKAO25QQVKV31D473VZ93I,338054,338054,3,0.06,"""","""","""","""","""","""","""","""","""","""","""","""","2021-12-31 03:55:18",74.72.142.129,"Mozilla/5.0 (Windows NT 10.0; Win64; x64) AppleWebKit/537.36 (KHTML, like Gecko) Chrome/96.0.4664.110 Safari/537.36",WebKit,Chrome,96.0.4664.110,Windows,10.0,ac0f2dffeffaa78d35a552e03d03f0a8
20,3,"""",pre-exp,instructionspage1,instructions,1,11746,0.0-1.0-0.0,3PKVGQTFJQLSZOM7OKJDU84QFXXYRA,A147F5PJTHOB8A,3VSOLARPKKAO25QQVKV31D473VZ93I,PLSV4,PLSV4,3VSOLARPKKAO25QQVKV31D473VZ93I,3VSOLARPKKAO25QQVKV31D473VZ93I,338054,338054,3,0.06,"[{""page_index"":0,""viewing_time"":3082}]",3082.399999976158,"""","""","""","""","""","""","""","""","""","""","2021-12-31 03:55:18",74.72.142.129,"Mozilla/5.0 (Windows NT 10.0; Win64; x64) AppleWebKit/537.36 (KHTML, like Gecko) Chrome/96.0.4664.110 Safari/537.36",WebKit,Chrome,96.0.4664.110,Windows,10.0,ac0f2dffeffaa78d35a552e03d03f0a8
20,3,"""",pre-exp,instructions_block2,canvas-button-response,2,23916,0.0-2.0-0.0-0.0,3PKVGQTFJQLSZOM7OKJDU84QFXXYRA,A147F5PJTHOB8A,3VSOLARPKKAO25QQVKV31D473VZ93I,PLSV4,PLSV4,3VSOLARPKKAO25QQVKV31D473VZ93I,3VSOLARPKKAO25QQVKV31D473VZ93I,338054,338054,3,0.06,"""",12056,1,instructionStim1,1,Clockwise,true,"""","""","""","""","""","2021-12-31 03:55:18",74.72.142.129,"Mozilla/5.0 (Windows NT 10.0; Win64; x64) AppleWebKit/537.36 (KHTML, like Gecko) Chrome/96.0.4664.110 Safari/537.36",WebKit,Chrome,96.0.4664.110,Windows,10.0,ac0f2dffeffaa78d35a552e03d03f0a8
20,3,"""",pre-exp,instructions_block3,canvas-button-response,3,25699,0.0-3.0-0.0-0.0,3PKVGQTFJQLSZOM7OKJDU84QFXXYRA,A147F5PJTHOB8A,3VSOLARPKKAO25QQVKV31D473VZ93I,PLSV4,PLSV4,3VSOLARPKKAO25QQVKV31D473VZ93I,3VSOLARPKKAO25QQVKV31D473VZ93I,338054,338054,3,0.06,"""",1708,0,instructionStim2,0,Counter-clockwise,true,"""","""","""","""","""","2021-12-31 03:55:18",74.72.142.129,"Mozilla/5.0 (Windows NT 10.0; Win64; x64) AppleWebKit/537.36 (KHTML, like Gecko) Chrome/96.0.4664.110 Safari/537.36",WebKit,Chrome,96.0.4664.110,Windows,10.0,ac0f2dffeffaa78d35a552e03d03f0a8
20,3,"""",pre-exp,instructions_block4,html-slider-response,4,37453,0.0-4.0,3PKVGQTFJQLSZOM7OKJDU84QFXXYRA,A147F5PJTHOB8A,3VSOLARPKKAO25QQVKV31D473VZ93I,PLSV4,PLSV4,3VSOLARPKKAO25QQVKV31D473VZ93I,3VSOLARPKKAO25QQVKV31D473VZ93I,338054,338054,3,0.06,"""",11752.600000023842,100,"<div id=""message-div""><p>After you have made your clockwise/counter-clockwise choice, <br>you will be asked to rate how confident you are that you were correct in your clockwise/counter-clockwise choice using a slide bar.<br>Please try to use the entire range of the slider bar.<br>For example, feel free to move the slider to the leftmost location if you are extremely uncertain about your choice, and the rightmost location if you are extremely certain.</p></div>","""","""","""",50,"""","""","""","""","2021-12-31 03:55:18",74.72.142.129,"Mozilla/5.0 (Windows NT 10.0; Win64; x64) AppleWebKit/537.36 (KHTML, like Gecko) Chrome/96.0.4664.110 Safari/537.36",WebKit,Chrome,96.0.4664.110,Windows,10.0,ac0f2dffeffaa78d35a552e03d03f0a8
20,3,"""",pre-exp,instructionspage5,instructions,5,43317,0.0-5.0-0.0,3PKVGQTFJQLSZOM7OKJDU84QFXXYRA,A147F5PJTHOB8A,3VSOLARPKKAO25QQVKV31D473VZ93I,PLSV4,PLSV4,3VSOLARPKKAO25QQVKV31D473VZ93I,3VSOLARPKKAO25QQVKV31D473VZ93I,338054,338054,3,0.06,"[{""page_index"":0,""viewing_time"":5861.5999999940395}]",5862,"""","""","""","""","""","""","""","""","""","""","2021-12-31 03:55:18",74.72.142.129,"Mozilla/5.0 (Windows NT 10.0; Win64; x64) AppleWebKit/537.36 (KHTML, like Gecko) Chrome/96.0.4664.110 Safari/537.36",WebKit,Chrome,96.0.4664.110,Windows,10.0,ac0f2dffeffaa78d35a552e03d03f0a8
20,3,"""",pre-exp,instructionspage6,instructions,6,44863,0.0-6.0-0.0,3PKVGQTFJQLSZOM7OKJDU84QFXXYRA,A147F5PJTHOB8A,3VSOLARPKKAO25QQVKV31D473VZ93I,PLSV4,PLSV4,3VSOLARPKKAO25QQVKV31D473VZ93I,3VSOLARPKKAO25QQVKV31D473VZ93I,338054,338054,3,0.06,"[{""page_index"":0,""viewing_time"":1544.9000000059605}]",1545.300000011921,"""","""","""","""","""","""","""","""","""","""","2021-12-31 03:55:18",74.72.142.129,"Mozilla/5.0 (Windows NT 10.0; Win64; x64) AppleWebKit/537.36 (KHTML, like Gecko) Chrome/96.0.4664.110 Safari/537.36",WebKit,Chrome,96.0.4664.110,Windows,10.0,ac0f2dffeffaa78d35a552e03d03f0a8
20,3,"""",pre-exp,instructionspage7,instructions,7,51217,0.0-7.0-0.0,3PKVGQTFJQLSZOM7OKJDU84QFXXYRA,A147F5PJTHOB8A,3VSOLARPKKAO25QQVKV31D473VZ93I,PLSV4,PLSV4,3VSOLARPKKAO25QQVKV31D473VZ93I,3VSOLARPKKAO25QQVKV31D473VZ93I,338054,338054,3,0.06,"[{""page_index"":0,""viewing_time"":6351.4000000059605}]",6351.800000011921,"""","""","""","""","""","""","""","""","""","""","2021-12-31 03:55:18",74.72.142.129,"Mozilla/5.0 (Windows NT 10.0; Win64; x64) AppleWebKit/537.36 (KHTML, like Gecko) Chrome/96.0.4664.110 Safari/537.36",WebKit,Chrome,96.0.4664.110,Windows,10.0,ac0f2dffeffaa78d35a552e03d03f0a8
20,3,"""",pre-exp,instructionspage8,instructions,8,52318,0.0-8.0-0.0,3PKVGQTFJQLSZOM7OKJDU84QFXXYRA,A147F5PJTHOB8A,3VSOLARPKKAO25QQVKV31D473VZ93I,PLSV4,PLSV4,3VSOLARPKKAO25QQVKV31D473VZ93I,3VSOLARPKKAO25QQVKV31D473VZ93I,338054,338054,3,0.06,"[{""page_index"":0,""viewing_time"":1100}]",1100.2999999821186,"""","""","""","""","""","""","""","""","""","""","2021-12-31 03:55:18",74.72.142.129,"Mozilla/5.0 (Windows NT 10.0; Win64; x64) AppleWebKit/537.36 (KHTML, like Gecko) Chrome/96.0.4664.110 Safari/537.36",WebKit,Chrome,96.0.4664.110,Windows,10.0,ac0f2dffeffaa78d35a552e03d03f0a8
20,3,"""",practice_procedure,fixation,html-keyboard-response,9,52821,0.0-9.0-0.0-0.0,3PKVGQTFJQLSZOM7OKJDU84QFXXYRA,A147F5PJTHOB8A,3VSOLARPKKAO25QQVKV31D473VZ93I,PLSV4,PLSV4,3VSOLARPKKAO25QQVKV31D473VZ93I,3VSOLARPKKAO25QQVKV31D473VZ93I,338054,338054,3,0.06,"""",null,null,"<div class = fixationbox><div class = fixation>+</div></div>","""","""","""","""","""","""","""","""","2021-12-31 03:55:18",74.72.142.129,"Mozilla/5.0 (Windows NT 10.0; Win64; x64) AppleWebKit/537.36 (KHTML, like Gecko) Chrome/96.0.4664.110 Safari/537.36",WebKit,Chrome,96.0.4664.110,Windows,10.0,ac0f2dffeffaa78d35a552e03d03f0a8
20,3,"""",practice_procedure,stim_practice,canvas-button-response,10,55366,0.0-9.0-0.0-1.0,3PKVGQTFJQLSZOM7OKJDU84QFXXYRA,A147F5PJTHOB8A,3VSOLARPKKAO25QQVKV31D473VZ93I,PLSV4,PLSV4,3VSOLARPKKAO25QQVKV31D473VZ93I,3VSOLARPKKAO25QQVKV31D473VZ93I,338054,338054,3,0.06,"""",2488.699999988079,1,practiceStim3,1,Clockwise,true,"""",0.3,60,0.99,"""","2021-12-31 03:55:18",74.72.142.129,"Mozilla/5.0 (Windows NT 10.0; Win64; x64) AppleWebKit/537.36 (KHTML, like Gecko) Chrome/96.0.4664.110 Safari/537.36",WebKit,Chrome,96.0.4664.110,Windows,10.0,ac0f2dffeffaa78d35a552e03d03f0a8
20,3,"""",practice_procedure,confidence_rating,html-slider-response,11,58846,0.0-9.0-0.0-2.0,3PKVGQTFJQLSZOM7OKJDU84QFXXYRA,A147F5PJTHOB8A,3VSOLARPKKAO25QQVKV31D473VZ93I,PLSV4,PLSV4,3VSOLARPKKAO25QQVKV31D473VZ93I,3VSOLARPKKAO25QQVKV31D473VZ93I,338054,338054,3,0.06,"""",3478.2999999821186,100,"<div id=""message-div""><p>How confident are you that your clockwise/counter-clockwise response just now was accurate? Please rate your confidence on the slider bar below.</p></div>","""","""","""",50,"""","""","""",100,"2021-12-31 03:55:18",74.72.142.129,"Mozilla/5.0 (Windows NT 10.0; Win64; x64) AppleWebKit/537.36 (KHTML, like Gecko) Chrome/96.0.4664.110 Safari/537.36",WebKit,Chrome,96.0.4664.110,Windows,10.0,ac0f2dffeffaa78d35a552e03d03f0a8
20,3,"""",practice_procedure,fixation,html-keyboard-response,12,59349,0.0-9.0-0.0-0.1,3PKVGQTFJQLSZOM7OKJDU84QFXXYRA,A147F5PJTHOB8A,3VSOLARPKKAO25QQVKV31D473VZ93I,PLSV4,PLSV4,3VSOLARPKKAO25QQVKV31D473VZ93I,3VSOLARPKKAO25QQVKV31D473VZ93I,338054,338054,3,0.06,"""",null,null,"<div class = fixationbox><div class = fixation>+</div></div>","""","""","""","""","""","""","""","""","2021-12-31 03:55:18",74.72.142.129,"Mozilla/5.0 (Windows NT 10.0; Win64; x64) AppleWebKit/537.36 (KHTML, like Gecko) Chrome/96.0.4664.110 Safari/537.36",WebKit,Chrome,96.0.4664.110,Windows,10.0,ac0f2dffeffaa78d35a552e03d03f0a8
20,3,"""",practice_procedure,stim_practice,canvas-button-response,13,61243,0.0-9.0-0.0-1.1,3PKVGQTFJQLSZOM7OKJDU84QFXXYRA,A147F5PJTHOB8A,3VSOLARPKKAO25QQVKV31D473VZ93I,PLSV4,PLSV4,3VSOLARPKKAO25QQVKV31D473VZ93I,3VSOLARPKKAO25QQVKV31D473VZ93I,338054,338054,3,0.06,"""",1851.7000000178814,1,practiceStim3,1,Clockwise,true,"""",0.3,60,0.99,"""","2021-12-31 03:55:18",74.72.142.129,"Mozilla/5.0 (Windows NT 10.0; Win64; x64) AppleWebKit/537.36 (KHTML, like Gecko) Chrome/96.0.4664.110 Safari/537.36",WebKit,Chrome,96.0.4664.110,Windows,10.0,ac0f2dffeffaa78d35a552e03d03f0a8
20,3,"""",practice_procedure,confidence_rating,html-slider-response,14,63319,0.0-9.0-0.0-2.1,3PKVGQTFJQLSZOM7OKJDU84QFXXYRA,A147F5PJTHOB8A,3VSOLARPKKAO25QQVKV31D473VZ93I,PLSV4,PLSV4,3VSOLARPKKAO25QQVKV31D473VZ93I,3VSOLARPKKAO25QQVKV31D473VZ93I,338054,338054,3,0.06,"""",2075.199999988079,100,"<div id=""message-div""><p>How confident are you that your clockwise/counter-clockwise response just now was accurate? Please rate your confidence on the slider bar below.</p></div>","""","""","""",50,"""","""","""",100,"2021-12-31 03:55:18",74.72.142.129,"Mozilla/5.0 (Windows NT 10.0; Win64; x64) AppleWebKit/537.36 (KHTML, like Gecko) Chrome/96.0.4664.110 Safari/537.36",WebKit,Chrome,96.0.4664.110,Windows,10.0,ac0f2dffeffaa78d35a552e03d03f0a8
20,3,"""",practice_procedure,fixation,html-keyboard-response,15,63821,0.0-9.0-0.0-0.2,3PKVGQTFJQLSZOM7OKJDU84QFXXYRA,A147F5PJTHOB8A,3VSOLARPKKAO25QQVKV31D473VZ93I,PLSV4,PLSV4,3VSOLARPKKAO25QQVKV31D473VZ93I,3VSOLARPKKAO25QQVKV31D473VZ93I,338054,338054,3,0.06,"""",null,null,"<div class = fixationbox><div class = fixation>+</div></div>","""","""","""","""","""","""","""","""","2021-12-31 03:55:18",74.72.142.129,"Mozilla/5.0 (Windows NT 10.0; Win64; x64) AppleWebKit/537.36 (KHTML, like Gecko) Chrome/96.0.4664.110 Safari/537.36",WebKit,Chrome,96.0.4664.110,Windows,10.0,ac0f2dffeffaa78d35a552e03d03f0a8
20,3,"""",practice_procedure,stim_practice,canvas-button-response,16,65753,0.0-9.0-0.0-1.2,3PKVGQTFJQLSZOM7OKJDU84QFXXYRA,A147F5PJTHOB8A,3VSOLARPKKAO25QQVKV31D473VZ93I,PLSV4,PLSV4,3VSOLARPKKAO25QQVKV31D473VZ93I,3VSOLARPKKAO25QQVKV31D473VZ93I,338054,338054,3,0.06,"""",1893,0,practiceStim3,1,Clockwise,false,"""",0.3,60,0.99,"""","2021-12-31 03:55:18",74.72.142.129,"Mozilla/5.0 (Windows NT 10.0; Win64; x64) AppleWebKit/537.36 (KHTML, like Gecko) Chrome/96.0.4664.110 Safari/537.36",WebKit,Chrome,96.0.4664.110,Windows,10.0,ac0f2dffeffaa78d35a552e03d03f0a8
20,3,"""",practice_procedure,confidence_rating,html-slider-response,17,69204,0.0-9.0-0.0-2.2,3PKVGQTFJQLSZOM7OKJDU84QFXXYRA,A147F5PJTHOB8A,3VSOLARPKKAO25QQVKV31D473VZ93I,PLSV4,PLSV4,3VSOLARPKKAO25QQVKV31D473VZ93I,3VSOLARPKKAO25QQVKV31D473VZ93I,338054,338054,3,0.06,"""",3449.0999999940395,80,"<div id=""message-div""><p>How confident are you that your clockwise/counter-clockwise response just now was accurate? Please rate your confidence on the slider bar below.</p></div>","""","""","""",50,"""","""","""",80,"2021-12-31 03:55:18",74.72.142.129,"Mozilla/5.0 (Windows NT 10.0; Win64; x64) AppleWebKit/537.36 (KHTML, like Gecko) Chrome/96.0.4664.110 Safari/537.36",WebKit,Chrome,96.0.4664.110,Windows,10.0,ac0f2dffeffaa78d35a552e03d03f0a8
20,3,"""",practice_procedure,fixation,html-keyboard-response,18,69705,0.0-9.0-0.0-0.3,3PKVGQTFJQLSZOM7OKJDU84QFXXYRA,A147F5PJTHOB8A,3VSOLARPKKAO25QQVKV31D473VZ93I,PLSV4,PLSV4,3VSOLARPKKAO25QQVKV31D473VZ93I,3VSOLARPKKAO25QQVKV31D473VZ93I,338054,338054,3,0.06,"""",null,null,"<div class = fixationbox><div class = fixation>+</div></div>","""","""","""","""","""","""","""","""","2021-12-31 03:55:18",74.72.142.129,"Mozilla/5.0 (Windows NT 10.0; Win64; x64) AppleWebKit/537.36 (KHTML, like Gecko) Chrome/96.0.4664.110 Safari/537.36",WebKit,Chrome,96.0.4664.110,Windows,10.0,ac0f2dffeffaa78d35a552e03d03f0a8
20,3,"""",practice_procedure,stim_practice,canvas-button-response,19,71324,0.0-9.0-0.0-1.3,3PKVGQTFJQLSZOM7OKJDU84QFXXYRA,A147F5PJTHOB8A,3VSOLARPKKAO25QQVKV31D473VZ93I,PLSV4,PLSV4,3VSOLARPKKAO25QQVKV31D473VZ93I,3VSOLARPKKAO25QQVKV31D473VZ93I,338054,338054,3,0.06,"""",1581,0,practiceStim2,0,Counter-clockwise,true,"""",0.01,120,0.99,"""","2021-12-31 03:55:18",74.72.142.129,"Mozilla/5.0 (Windows NT 10.0; Win64; x64) AppleWebKit/537.36 (KHTML, like Gecko) Chrome/96.0.4664.110 Safari/537.36",WebKit,Chrome,96.0.4664.110,Windows,10.0,ac0f2dffeffaa78d35a552e03d03f0a8
20,3,"""",practice_procedure,confidence_rating,html-slider-response,20,75613,0.0-9.0-0.0-2.3,3PKVGQTFJQLSZOM7OKJDU84QFXXYRA,A147F5PJTHOB8A,3VSOLARPKKAO25QQVKV31D473VZ93I,PLSV4,PLSV4,3VSOLARPKKAO25QQVKV31D473VZ93I,3VSOLARPKKAO25QQVKV31D473VZ93I,338054,338054,3,0.06,"""",4286.699999988079,100,"<div id=""message-div""><p>How confident are you that your clockwise/counter-clockwise response just now was accurate? Please rate your confidence on the slider bar below.</p></div>","""","""","""",50,"""","""","""",100,"2021-12-31 03:55:18",74.72.142.129,"Mozilla/5.0 (Windows NT 10.0; Win64; x64) AppleWebKit/537.36 (KHTML, like Gecko) Chrome/96.0.4664.110 Safari/537.36",WebKit,Chrome,96.0.4664.110,Windows,10.0,ac0f2dffeffaa78d35a552e03d03f0a8
20,3,"""",practice_procedure,fixation,html-keyboard-response,21,76114,0.0-9.0-0.0-0.4,3PKVGQTFJQLSZOM7OKJDU84QFXXYRA,A147F5PJTHOB8A,3VSOLARPKKAO25QQVKV31D473VZ93I,PLSV4,PLSV4,3VSOLARPKKAO25QQVKV31D473VZ93I,3VSOLARPKKAO25QQVKV31D473VZ93I,338054,338054,3,0.06,"""",null,null,"<div class = fixationbox><div class = fixation>+</div></div>","""","""","""","""","""","""","""","""","2021-12-31 03:55:18",74.72.142.129,"Mozilla/5.0 (Windows NT 10.0; Win64; x64) AppleWebKit/537.36 (KHTML, like Gecko) Chrome/96.0.4664.110 Safari/537.36",WebKit,Chrome,96.0.4664.110,Windows,10.0,ac0f2dffeffaa78d35a552e03d03f0a8
20,3,"""",practice_procedure,stim_practice,canvas-button-response,22,77240,0.0-9.0-0.0-1.4,3PKVGQTFJQLSZOM7OKJDU84QFXXYRA,A147F5PJTHOB8A,3VSOLARPKKAO25QQVKV31D473VZ93I,PLSV4,PLSV4,3VSOLARPKKAO25QQVKV31D473VZ93I,3VSOLARPKKAO25QQVKV31D473VZ93I,338054,338054,3,0.06,"""",1088,1,practiceStim3,1,Clockwise,true,"""",0.3,60,0.99,"""","2021-12-31 03:55:18",74.72.142.129,"Mozilla/5.0 (Windows NT 10.0; Win64; x64) AppleWebKit/537.36 (KHTML, like Gecko) Chrome/96.0.4664.110 Safari/537.36",WebKit,Chrome,96.0.4664.110,Windows,10.0,ac0f2dffeffaa78d35a552e03d03f0a8
20,3,"""",practice_procedure,confidence_rating,html-slider-response,23,79210,0.0-9.0-0.0-2.4,3PKVGQTFJQLSZOM7OKJDU84QFXXYRA,A147F5PJTHOB8A,3VSOLARPKKAO25QQVKV31D473VZ93I,PLSV4,PLSV4,3VSOLARPKKAO25QQVKV31D473VZ93I,3VSOLARPKKAO25QQVKV31D473VZ93I,338054,338054,3,0.06,"""",1967.5,100,"<div id=""message-div""><p>How confident are you that your clockwise/counter-clockwise response just now was accurate? Please rate your confidence on the slider bar below.</p></div>","""","""","""",50,"""","""","""",100,"2021-12-31 03:55:18",74.72.142.129,"Mozilla/5.0 (Windows NT 10.0; Win64; x64) AppleWebKit/537.36 (KHTML, like Gecko) Chrome/96.0.4664.110 Safari/537.36",WebKit,Chrome,96.0.4664.110,Windows,10.0,ac0f2dffeffaa78d35a552e03d03f0a8
20,3,"""",practice_procedure,fixation,html-keyboard-response,24,79712,0.0-9.0-0.0-0.5,3PKVGQTFJQLSZOM7OKJDU84QFXXYRA,A147F5PJTHOB8A,3VSOLARPKKAO25QQVKV31D473VZ93I,PLSV4,PLSV4,3VSOLARPKKAO25QQVKV31D473VZ93I,3VSOLARPKKAO25QQVKV31D473VZ93I,338054,338054,3,0.06,"""",null,null,"<div class = fixationbox><div class = fixation>+</div></div>","""","""","""","""","""","""","""","""","2021-12-31 03:55:18",74.72.142.129,"Mozilla/5.0 (Windows NT 10.0; Win64; x64) AppleWebKit/537.36 (KHTML, like Gecko) Chrome/96.0.4664.110 Safari/537.36",WebKit,Chrome,96.0.4664.110,Windows,10.0,ac0f2dffeffaa78d35a552e03d03f0a8
20,3,"""",practice_procedure,stim_practice,canvas-button-response,25,81910,0.0-9.0-0.0-1.5,3PKVGQTFJQLSZOM7OKJDU84QFXXYRA,A147F5PJTHOB8A,3VSOLARPKKAO25QQVKV31D473VZ93I,PLSV4,PLSV4,3VSOLARPKKAO25QQVKV31D473VZ93I,3VSOLARPKKAO25QQVKV31D473VZ93I,338054,338054,3,0.06,"""",2161.300000011921,1,practiceStim3,1,Clockwise,true,"""",0.3,60,0.99,"""","2021-12-31 03:55:18",74.72.142.129,"Mozilla/5.0 (Windows NT 10.0; Win64; x64) AppleWebKit/537.36 (KHTML, like Gecko) Chrome/96.0.4664.110 Safari/537.36",WebKit,Chrome,96.0.4664.110,Windows,10.0,ac0f2dffeffaa78d35a552e03d03f0a8
20,3,"""",practice_procedure,confidence_rating,html-slider-response,26,84636,0.0-9.0-0.0-2.5,3PKVGQTFJQLSZOM7OKJDU84QFXXYRA,A147F5PJTHOB8A,3VSOLARPKKAO25QQVKV31D473VZ93I,PLSV4,PLSV4,3VSOLARPKKAO25QQVKV31D473VZ93I,3VSOLARPKKAO25QQVKV31D473VZ93I,338054,338054,3,0.06,"""",2725,60,"<div id=""message-div""><p>How confident are you that your clockwise/counter-clockwise response just now was accurate? Please rate your confidence on the slider bar below.</p></div>","""","""","""",50,"""","""","""",60,"2021-12-31 03:55:18",74.72.142.129,"Mozilla/5.0 (Windows NT 10.0; Win64; x64) AppleWebKit/537.36 (KHTML, like Gecko) Chrome/96.0.4664.110 Safari/537.36",WebKit,Chrome,96.0.4664.110,Windows,10.0,ac0f2dffeffaa78d35a552e03d03f0a8
20,3,"""",practice_procedure,fixation,html-keyboard-response,27,85140,0.0-9.0-0.0-0.6,3PKVGQTFJQLSZOM7OKJDU84QFXXYRA,A147F5PJTHOB8A,3VSOLARPKKAO25QQVKV31D473VZ93I,PLSV4,PLSV4,3VSOLARPKKAO25QQVKV31D473VZ93I,3VSOLARPKKAO25QQVKV31D473VZ93I,338054,338054,3,0.06,"""",null,null,"<div class = fixationbox><div class = fixation>+</div></div>","""","""","""","""","""","""","""","""","2021-12-31 03:55:18",74.72.142.129,"Mozilla/5.0 (Windows NT 10.0; Win64; x64) AppleWebKit/537.36 (KHTML, like Gecko) Chrome/96.0.4664.110 Safari/537.36",WebKit,Chrome,96.0.4664.110,Windows,10.0,ac0f2dffeffaa78d35a552e03d03f0a8
20,3,"""",practice_procedure,stim_practice,canvas-button-response,28,86384,0.0-9.0-0.0-1.6,3PKVGQTFJQLSZOM7OKJDU84QFXXYRA,A147F5PJTHOB8A,3VSOLARPKKAO25QQVKV31D473VZ93I,PLSV4,PLSV4,3VSOLARPKKAO25QQVKV31D473VZ93I,3VSOLARPKKAO25QQVKV31D473VZ93I,338054,338054,3,0.06,"""",1202.699999988079,1,practiceStim3,1,Clockwise,true,"""",0.3,60,0.99,"""","2021-12-31 03:55:18",74.72.142.129,"Mozilla/5.0 (Windows NT 10.0; Win64; x64) AppleWebKit/537.36 (KHTML, like Gecko) Chrome/96.0.4664.110 Safari/537.36",WebKit,Chrome,96.0.4664.110,Windows,10.0,ac0f2dffeffaa78d35a552e03d03f0a8
20,3,"""",practice_procedure,confidence_rating,html-slider-response,29,88232,0.0-9.0-0.0-2.6,3PKVGQTFJQLSZOM7OKJDU84QFXXYRA,A147F5PJTHOB8A,3VSOLARPKKAO25QQVKV31D473VZ93I,PLSV4,PLSV4,3VSOLARPKKAO25QQVKV31D473VZ93I,3VSOLARPKKAO25QQVKV31D473VZ93I,338054,338054,3,0.06,"""",1846.699999988079,100,"<div id=""message-div""><p>How confident are you that your clockwise/counter-clockwise response just now was accurate? Please rate your confidence on the slider bar below.</p></div>","""","""","""",50,"""","""","""",100,"2021-12-31 03:55:18",74.72.142.129,"Mozilla/5.0 (Windows NT 10.0; Win64; x64) AppleWebKit/537.36 (KHTML, like Gecko) Chrome/96.0.4664.110 Safari/537.36",WebKit,Chrome,96.0.4664.110,Windows,10.0,ac0f2dffeffaa78d35a552e03d03f0a8
20,3,"""",practice_procedure,fixation,html-keyboard-response,30,88733,0.0-9.0-0.0-0.7,3PKVGQTFJQLSZOM7OKJDU84QFXXYRA,A147F5PJTHOB8A,3VSOLARPKKAO25QQVKV31D473VZ93I,PLSV4,PLSV4,3VSOLARPKKAO25QQVKV31D473VZ93I,3VSOLARPKKAO25QQVKV31D473VZ93I,338054,338054,3,0.06,"""",null,null,"<div class = fixationbox><div class = fixation>+</div></div>","""","""","""","""","""","""","""","""","2021-12-31 03:55:18",74.72.142.129,"Mozilla/5.0 (Windows NT 10.0; Win64; x64) AppleWebKit/537.36 (KHTML, like Gecko) Chrome/96.0.4664.110 Safari/537.36",WebKit,Chrome,96.0.4664.110,Windows,10.0,ac0f2dffeffaa78d35a552e03d03f0a8
20,3,"""",practice_procedure,stim_practice,canvas-button-response,31,90088,0.0-9.0-0.0-1.7,3PKVGQTFJQLSZOM7OKJDU84QFXXYRA,A147F5PJTHOB8A,3VSOLARPKKAO25QQVKV31D473VZ93I,PLSV4,PLSV4,3VSOLARPKKAO25QQVKV31D473VZ93I,3VSOLARPKKAO25QQVKV31D473VZ93I,338054,338054,3,0.06,"""",1316.5,1,practiceStim3,1,Clockwise,true,"""",0.3,60,0.99,"""","2021-12-31 03:55:18",74.72.142.129,"Mozilla/5.0 (Windows NT 10.0; Win64; x64) AppleWebKit/537.36 (KHTML, like Gecko) Chrome/96.0.4664.110 Safari/537.36",WebKit,Chrome,96.0.4664.110,Windows,10.0,ac0f2dffeffaa78d35a552e03d03f0a8
20,3,"""",practice_procedure,confidence_rating,html-slider-response,32,93814,0.0-9.0-0.0-2.7,3PKVGQTFJQLSZOM7OKJDU84QFXXYRA,A147F5PJTHOB8A,3VSOLARPKKAO25QQVKV31D473VZ93I,PLSV4,PLSV4,3VSOLARPKKAO25QQVKV31D473VZ93I,3VSOLARPKKAO25QQVKV31D473VZ93I,338054,338054,3,0.06,"""",3723.2000000178814,100,"<div id=""message-div""><p>How confident are you that your clockwise/counter-clockwise response just now was accurate? Please rate your confidence on the slider bar below.</p></div>","""","""","""",50,"""","""","""",100,"2021-12-31 03:55:18",74.72.142.129,"Mozilla/5.0 (Windows NT 10.0; Win64; x64) AppleWebKit/537.36 (KHTML, like Gecko) Chrome/96.0.4664.110 Safari/537.36",WebKit,Chrome,96.0.4664.110,Windows,10.0,ac0f2dffeffaa78d35a552e03d03f0a8
20,3,"""",practice_procedure,fixation,html-keyboard-response,33,94315,0.0-9.0-0.0-0.8,3PKVGQTFJQLSZOM7OKJDU84QFXXYRA,A147F5PJTHOB8A,3VSOLARPKKAO25QQVKV31D473VZ93I,PLSV4,PLSV4,3VSOLARPKKAO25QQVKV31D473VZ93I,3VSOLARPKKAO25QQVKV31D473VZ93I,338054,338054,3,0.06,"""",null,null,"<div class = fixationbox><div class = fixation>+</div></div>","""","""","""","""","""","""","""","""","2021-12-31 03:55:18",74.72.142.129,"Mozilla/5.0 (Windows NT 10.0; Win64; x64) AppleWebKit/537.36 (KHTML, like Gecko) Chrome/96.0.4664.110 Safari/537.36",WebKit,Chrome,96.0.4664.110,Windows,10.0,ac0f2dffeffaa78d35a552e03d03f0a8
20,3,"""",practice_procedure,stim_practice,canvas-button-response,34,95488,0.0-9.0-0.0-1.8,3PKVGQTFJQLSZOM7OKJDU84QFXXYRA,A147F5PJTHOB8A,3VSOLARPKKAO25QQVKV31D473VZ93I,PLSV4,PLSV4,3VSOLARPKKAO25QQVKV31D473VZ93I,3VSOLARPKKAO25QQVKV31D473VZ93I,338054,338054,3,0.06,"""",1134.0999999940395,1,practiceStim1,1,Clockwise,true,"""",0.01,60,0.99,"""","2021-12-31 03:55:18",74.72.142.129,"Mozilla/5.0 (Windows NT 10.0; Win64; x64) AppleWebKit/537.36 (KHTML, like Gecko) Chrome/96.0.4664.110 Safari/537.36",WebKit,Chrome,96.0.4664.110,Windows,10.0,ac0f2dffeffaa78d35a552e03d03f0a8
20,3,"""",practice_procedure,confidence_rating,html-slider-response,35,97448,0.0-9.0-0.0-2.8,3PKVGQTFJQLSZOM7OKJDU84QFXXYRA,A147F5PJTHOB8A,3VSOLARPKKAO25QQVKV31D473VZ93I,PLSV4,PLSV4,3VSOLARPKKAO25QQVKV31D473VZ93I,3VSOLARPKKAO25QQVKV31D473VZ93I,338054,338054,3,0.06,"""",1957.5999999940395,99,"<div id=""message-div""><p>How confident are you that your clockwise/counter-clockwise response just now was accurate? Please rate your confidence on the slider bar below.</p></div>","""","""","""",50,"""","""","""",99,"2021-12-31 03:55:18",74.72.142.129,"Mozilla/5.0 (Windows NT 10.0; Win64; x64) AppleWebKit/537.36 (KHTML, like Gecko) Chrome/96.0.4664.110 Safari/537.36",WebKit,Chrome,96.0.4664.110,Windows,10.0,ac0f2dffeffaa78d35a552e03d03f0a8
20,3,"""",practice_procedure,fixation,html-keyboard-response,36,97949,0.0-9.0-0.0-0.9,3PKVGQTFJQLSZOM7OKJDU84QFXXYRA,A147F5PJTHOB8A,3VSOLARPKKAO25QQVKV31D473VZ93I,PLSV4,PLSV4,3VSOLARPKKAO25QQVKV31D473VZ93I,3VSOLARPKKAO25QQVKV31D473VZ93I,338054,338054,3,0.06,"""",null,null,"<div class = fixationbox><div class = fixation>+</div></div>","""","""","""","""","""","""","""","""","2021-12-31 03:55:18",74.72.142.129,"Mozilla/5.0 (Windows NT 10.0; Win64; x64) AppleWebKit/537.36 (KHTML, like Gecko) Chrome/96.0.4664.110 Safari/537.36",WebKit,Chrome,96.0.4664.110,Windows,10.0,ac0f2dffeffaa78d35a552e03d03f0a8
20,3,"""",practice_procedure,stim_practice,canvas-button-response,37,99100,0.0-9.0-0.0-1.9,3PKVGQTFJQLSZOM7OKJDU84QFXXYRA,A147F5PJTHOB8A,3VSOLARPKKAO25QQVKV31D473VZ93I,PLSV4,PLSV4,3VSOLARPKKAO25QQVKV31D473VZ93I,3VSOLARPKKAO25QQVKV31D473VZ93I,338054,338054,3,0.06,"""",1112.0999999940395,0,practiceStim4,0,Counter-clockwise,true,"""",0.3,120,0.99,"""","2021-12-31 03:55:18",74.72.142.129,"Mozilla/5.0 (Windows NT 10.0; Win64; x64) AppleWebKit/537.36 (KHTML, like Gecko) Chrome/96.0.4664.110 Safari/537.36",WebKit,Chrome,96.0.4664.110,Windows,10.0,ac0f2dffeffaa78d35a552e03d03f0a8
20,3,"""",practice_procedure,confidence_rating,html-slider-response,38,100883,0.0-9.0-0.0-2.9,3PKVGQTFJQLSZOM7OKJDU84QFXXYRA,A147F5PJTHOB8A,3VSOLARPKKAO25QQVKV31D473VZ93I,PLSV4,PLSV4,3VSOLARPKKAO25QQVKV31D473VZ93I,3VSOLARPKKAO25QQVKV31D473VZ93I,338054,338054,3,0.06,"""",1781,100,"<div id=""message-div""><p>How confident are you that your clockwise/counter-clockwise response just now was accurate? Please rate your confidence on the slider bar below.</p></div>","""","""","""",50,"""","""","""",100,"2021-12-31 03:55:18",74.72.142.129,"Mozilla/5.0 (Windows NT 10.0; Win64; x64) AppleWebKit/537.36 (KHTML, like Gecko) Chrome/96.0.4664.110 Safari/537.36",WebKit,Chrome,96.0.4664.110,Windows,10.0,ac0f2dffeffaa78d35a552e03d03f0a8
20,3,"""",pre-test,test_instruction,instructions,39,105832,0.0-10.0,3PKVGQTFJQLSZOM7OKJDU84QFXXYRA,A147F5PJTHOB8A,3VSOLARPKKAO25QQVKV31D473VZ93I,PLSV4,PLSV4,3VSOLARPKKAO25QQVKV31D473VZ93I,3VSOLARPKKAO25QQVKV31D473VZ93I,338054,338054,3,0.06,"[{""page_index"":0,""viewing_time"":4946.300000011921}]",4946.5999999940395,"""","""","""","""","""","""","""","""","""","""","2021-12-31 03:55:18",74.72.142.129,"Mozilla/5.0 (Windows NT 10.0; Win64; x64) AppleWebKit/537.36 (KHTML, like Gecko) Chrome/96.0.4664.110 Safari/537.36",WebKit,Chrome,96.0.4664.110,Windows,10.0,ac0f2dffeffaa78d35a552e03d03f0a8
20,3,"""",test_procedure,fixation,html-keyboard-response,40,106333,0.0-11.0-0.0-0.0,3PKVGQTFJQLSZOM7OKJDU84QFXXYRA,A147F5PJTHOB8A,3VSOLARPKKAO25QQVKV31D473VZ93I,PLSV4,PLSV4,3VSOLARPKKAO25QQVKV31D473VZ93I,3VSOLARPKKAO25QQVKV31D473VZ93I,338054,338054,3,0.06,"""",null,null,"<div class = fixationbox><div class = fixation>+</div></div>","""","""","""","""","""","""","""","""","2021-12-31 03:55:18",74.72.142.129,"Mozilla/5.0 (Windows NT 10.0; Win64; x64) AppleWebKit/537.36 (KHTML, like Gecko) Chrome/96.0.4664.110 Safari/537.36",WebKit,Chrome,96.0.4664.110,Windows,10.0,ac0f2dffeffaa78d35a552e03d03f0a8
20,3,"""",test_procedure,stim_test,canvas-button-response,41,110535,0.0-11.0-0.0-1.0,3PKVGQTFJQLSZOM7OKJDU84QFXXYRA,A147F5PJTHOB8A,3VSOLARPKKAO25QQVKV31D473VZ93I,PLSV4,PLSV4,3VSOLARPKKAO25QQVKV31D473VZ93I,3VSOLARPKKAO25QQVKV31D473VZ93I,338054,338054,3,0.06,"""",4161.800000011921,0,stim3,1,Clockwise,false,"""",0.3,60,"""","""","2021-12-31 03:55:18",74.72.142.129,"Mozilla/5.0 (Windows NT 10.0; Win64; x64) AppleWebKit/537.36 (KHTML, like Gecko) Chrome/96.0.4664.110 Safari/537.36",WebKit,Chrome,96.0.4664.110,Windows,10.0,ac0f2dffeffaa78d35a552e03d03f0a8
20,3,"""",test_procedure,confidence_rating,html-slider-response,42,113026,0.0-11.0-0.0-2.0,3PKVGQTFJQLSZOM7OKJDU84QFXXYRA,A147F5PJTHOB8A,3VSOLARPKKAO25QQVKV31D473VZ93I,PLSV4,PLSV4,3VSOLARPKKAO25QQVKV31D473VZ93I,3VSOLARPKKAO25QQVKV31D473VZ93I,338054,338054,3,0.06,"""",2490.199999988079,15,"<div id=""message-div""><p>How confident are you that your clockwise/counter-clockwise response just now was accurate? Please rate your confidence on the slider bar below.</p></div>","""","""","""",50,"""","""","""",15,"2021-12-31 03:55:18",74.72.142.129,"Mozilla/5.0 (Windows NT 10.0; Win64; x64) AppleWebKit/537.36 (KHTML, like Gecko) Chrome/96.0.4664.110 Safari/537.36",WebKit,Chrome,96.0.4664.110,Windows,10.0,ac0f2dffeffaa78d35a552e03d03f0a8
20,3,"""",test_procedure,fixation,html-keyboard-response,43,113531,0.0-11.0-0.0-0.1,3PKVGQTFJQLSZOM7OKJDU84QFXXYRA,A147F5PJTHOB8A,3VSOLARPKKAO25QQVKV31D473VZ93I,PLSV4,PLSV4,3VSOLARPKKAO25QQVKV31D473VZ93I,3VSOLARPKKAO25QQVKV31D473VZ93I,338054,338054,3,0.06,"""",null,null,"<div class = fixationbox><div class = fixation>+</div></div>","""","""","""","""","""","""","""","""","2021-12-31 03:55:18",74.72.142.129,"Mozilla/5.0 (Windows NT 10.0; Win64; x64) AppleWebKit/537.36 (KHTML, like Gecko) Chrome/96.0.4664.110 Safari/537.36",WebKit,Chrome,96.0.4664.110,Windows,10.0,ac0f2dffeffaa78d35a552e03d03f0a8
20,3,"""",test_procedure,stim_test,canvas-button-response,44,116018,0.0-11.0-0.0-1.1,3PKVGQTFJQLSZOM7OKJDU84QFXXYRA,A147F5PJTHOB8A,3VSOLARPKKAO25QQVKV31D473VZ93I,PLSV4,PLSV4,3VSOLARPKKAO25QQVKV31D473VZ93I,3VSOLARPKKAO25QQVKV31D473VZ93I,338054,338054,3,0.06,"""",2448.9000000059605,0,stim1,1,Clockwise,false,"""",0.01,60,"""","""","2021-12-31 03:55:18",74.72.142.129,"Mozilla/5.0 (Windows NT 10.0; Win64; x64) AppleWebKit/537.36 (KHTML, like Gecko) Chrome/96.0.4664.110 Safari/537.36",WebKit,Chrome,96.0.4664.110,Windows,10.0,ac0f2dffeffaa78d35a552e03d03f0a8
20,3,"""",test_procedure,confidence_rating,html-slider-response,45,117855,0.0-11.0-0.0-2.1,3PKVGQTFJQLSZOM7OKJDU84QFXXYRA,A147F5PJTHOB8A,3VSOLARPKKAO25QQVKV31D473VZ93I,PLSV4,PLSV4,3VSOLARPKKAO25QQVKV31D473VZ93I,3VSOLARPKKAO25QQVKV31D473VZ93I,338054,338054,3,0.06,"""",1835.7999999821186,2,"<div id=""message-div""><p>How confident are you that your clockwise/counter-clockwise response just now was accurate? Please rate your confidence on the slider bar below.</p></div>","""","""","""",50,"""","""","""",2,"2021-12-31 03:55:18",74.72.142.129,"Mozilla/5.0 (Windows NT 10.0; Win64; x64) AppleWebKit/537.36 (KHTML, like Gecko) Chrome/96.0.4664.110 Safari/537.36",WebKit,Chrome,96.0.4664.110,Windows,10.0,ac0f2dffeffaa78d35a552e03d03f0a8
20,3,"""",test_procedure,fixation,html-keyboard-response,46,118357,0.0-11.0-0.0-0.2,3PKVGQTFJQLSZOM7OKJDU84QFXXYRA,A147F5PJTHOB8A,3VSOLARPKKAO25QQVKV31D473VZ93I,PLSV4,PLSV4,3VSOLARPKKAO25QQVKV31D473VZ93I,3VSOLARPKKAO25QQVKV31D473VZ93I,338054,338054,3,0.06,"""",null,null,"<div class = fixationbox><div class = fixation>+</div></div>","""","""","""","""","""","""","""","""","2021-12-31 03:55:18",74.72.142.129,"Mozilla/5.0 (Windows NT 10.0; Win64; x64) AppleWebKit/537.36 (KHTML, like Gecko) Chrome/96.0.4664.110 Safari/537.36",WebKit,Chrome,96.0.4664.110,Windows,10.0,ac0f2dffeffaa78d35a552e03d03f0a8
20,3,"""",test_procedure,stim_test,canvas-button-response,47,120187,0.0-11.0-0.0-1.2,3PKVGQTFJQLSZOM7OKJDU84QFXXYRA,A147F5PJTHOB8A,3VSOLARPKKAO25QQVKV31D473VZ93I,PLSV4,PLSV4,3VSOLARPKKAO25QQVKV31D473VZ93I,3VSOLARPKKAO25QQVKV31D473VZ93I,338054,338054,3,0.06,"""",1793.199999988079,0,catchStim6,0,Counter-clockwise,true,"""",0.3,120,0.6,"""","2021-12-31 03:55:18",74.72.142.129,"Mozilla/5.0 (Windows NT 10.0; Win64; x64) AppleWebKit/537.36 (KHTML, like Gecko) Chrome/96.0.4664.110 Safari/537.36",WebKit,Chrome,96.0.4664.110,Windows,10.0,ac0f2dffeffaa78d35a552e03d03f0a8
20,3,"""",test_procedure,confidence_rating,html-slider-response,48,122517,0.0-11.0-0.0-2.2,3PKVGQTFJQLSZOM7OKJDU84QFXXYRA,A147F5PJTHOB8A,3VSOLARPKKAO25QQVKV31D473VZ93I,PLSV4,PLSV4,3VSOLARPKKAO25QQVKV31D473VZ93I,3VSOLARPKKAO25QQVKV31D473VZ93I,338054,338054,3,0.06,"""",2327.0999999940395,96,"<div id=""message-div""><p>How confident are you that your clockwise/counter-clockwise response just now was accurate? Please rate your confidence on the slider bar below.</p></div>","""","""","""",50,"""","""","""",96,"2021-12-31 03:55:18",74.72.142.129,"Mozilla/5.0 (Windows NT 10.0; Win64; x64) AppleWebKit/537.36 (KHTML, like Gecko) Chrome/96.0.4664.110 Safari/537.36",WebKit,Chrome,96.0.4664.110,Windows,10.0,ac0f2dffeffaa78d35a552e03d03f0a8
20,3,"""",test_procedure,fixation,html-keyboard-response,49,123019,0.0-11.0-0.0-0.3,3PKVGQTFJQLSZOM7OKJDU84QFXXYRA,A147F5PJTHOB8A,3VSOLARPKKAO25QQVKV31D473VZ93I,PLSV4,PLSV4,3VSOLARPKKAO25QQVKV31D473VZ93I,3VSOLARPKKAO25QQVKV31D473VZ93I,338054,338054,3,0.06,"""",null,null,"<div class = fixationbox><div class = fixation>+</div></div>","""","""","""","""","""","""","""","""","2021-12-31 03:55:18",74.72.142.129,"Mozilla/5.0 (Windows NT 10.0; Win64; x64) AppleWebKit/537.36 (KHTML, like Gecko) Chrome/96.0.4664.110 Safari/537.36",WebKit,Chrome,96.0.4664.110,Windows,10.0,ac0f2dffeffaa78d35a552e03d03f0a8
20,3,"""",test_procedure,stim_test,canvas-button-response,50,125127,0.0-11.0-0.0-1.3,3PKVGQTFJQLSZOM7OKJDU84QFXXYRA,A147F5PJTHOB8A,3VSOLARPKKAO25QQVKV31D473VZ93I,PLSV4,PLSV4,3VSOLARPKKAO25QQVKV31D473VZ93I,3VSOLARPKKAO25QQVKV31D473VZ93I,338054,338054,3,0.06,"""",2070.0999999940395,1,stim4,0,Counter-clockwise,false,"""",0.3,120,"""","""","2021-12-31 03:55:18",74.72.142.129,"Mozilla/5.0 (Windows NT 10.0; Win64; x64) AppleWebKit/537.36 (KHTML, like Gecko) Chrome/96.0.4664.110 Safari/537.36",WebKit,Chrome,96.0.4664.110,Windows,10.0,ac0f2dffeffaa78d35a552e03d03f0a8
20,3,"""",test_procedure,confidence_rating,html-slider-response,51,126757,0.0-11.0-0.0-2.3,3PKVGQTFJQLSZOM7OKJDU84QFXXYRA,A147F5PJTHOB8A,3VSOLARPKKAO25QQVKV31D473VZ93I,PLSV4,PLSV4,3VSOLARPKKAO25QQVKV31D473VZ93I,3VSOLARPKKAO25QQVKV31D473VZ93I,338054,338054,3,0.06,"""",1629.5999999940395,1,"<div id=""message-div""><p>How confident are you that your clockwise/counter-clockwise response just now was accurate? Please rate your confidence on the slider bar below.</p></div>","""","""","""",50,"""","""","""",1,"2021-12-31 03:55:18",74.72.142.129,"Mozilla/5.0 (Windows NT 10.0; Win64; x64) AppleWebKit/537.36 (KHTML, like Gecko) Chrome/96.0.4664.110 Safari/537.36",WebKit,Chrome,96.0.4664.110,Windows,10.0,ac0f2dffeffaa78d35a552e03d03f0a8
20,3,"""",test_procedure,fixation,html-keyboard-response,52,127262,0.0-11.0-0.0-0.4,3PKVGQTFJQLSZOM7OKJDU84QFXXYRA,A147F5PJTHOB8A,3VSOLARPKKAO25QQVKV31D473VZ93I,PLSV4,PLSV4,3VSOLARPKKAO25QQVKV31D473VZ93I,3VSOLARPKKAO25QQVKV31D473VZ93I,338054,338054,3,0.06,"""",null,null,"<div class = fixationbox><div class = fixation>+</div></div>","""","""","""","""","""","""","""","""","2021-12-31 03:55:18",74.72.142.129,"Mozilla/5.0 (Windows NT 10.0; Win64; x64) AppleWebKit/537.36 (KHTML, like Gecko) Chrome/96.0.4664.110 Safari/537.36",WebKit,Chrome,96.0.4664.110,Windows,10.0,ac0f2dffeffaa78d35a552e03d03f0a8
20,3,"""",test_procedure,stim_test,canvas-button-response,53,129121,0.0-11.0-0.0-1.4,3PKVGQTFJQLSZOM7OKJDU84QFXXYRA,A147F5PJTHOB8A,3VSOLARPKKAO25QQVKV31D473VZ93I,PLSV4,PLSV4,3VSOLARPKKAO25QQVKV31D473VZ93I,3VSOLARPKKAO25QQVKV31D473VZ93I,338054,338054,3,0.06,"""",1820.2999999821186,0,stim4,0,Counter-clockwise,true,"""",0.3,120,"""","""","2021-12-31 03:55:18",74.72.142.129,"Mozilla/5.0 (Windows NT 10.0; Win64; x64) AppleWebKit/537.36 (KHTML, like Gecko) Chrome/96.0.4664.110 Safari/537.36",WebKit,Chrome,96.0.4664.110,Windows,10.0,ac0f2dffeffaa78d35a552e03d03f0a8
20,3,"""",test_procedure,confidence_rating,html-slider-response,54,130686,0.0-11.0-0.0-2.4,3PKVGQTFJQLSZOM7OKJDU84QFXXYRA,A147F5PJTHOB8A,3VSOLARPKKAO25QQVKV31D473VZ93I,PLSV4,PLSV4,3VSOLARPKKAO25QQVKV31D473VZ93I,3VSOLARPKKAO25QQVKV31D473VZ93I,338054,338054,3,0.06,"""",1564.0999999940395,10,"<div id=""message-div""><p>How confident are you that your clockwise/counter-clockwise response just now was accurate? Please rate your confidence on the slider bar below.</p></div>","""","""","""",50,"""","""","""",10,"2021-12-31 03:55:18",74.72.142.129,"Mozilla/5.0 (Windows NT 10.0; Win64; x64) AppleWebKit/537.36 (KHTML, like Gecko) Chrome/96.0.4664.110 Safari/537.36",WebKit,Chrome,96.0.4664.110,Windows,10.0,ac0f2dffeffaa78d35a552e03d03f0a8
20,3,"""",test_procedure,fixation,html-keyboard-response,55,131188,0.0-11.0-0.0-0.5,3PKVGQTFJQLSZOM7OKJDU84QFXXYRA,A147F5PJTHOB8A,3VSOLARPKKAO25QQVKV31D473VZ93I,PLSV4,PLSV4,3VSOLARPKKAO25QQVKV31D473VZ93I,3VSOLARPKKAO25QQVKV31D473VZ93I,338054,338054,3,0.06,"""",null,null,"<div class = fixationbox><div class = fixation>+</div></div>","""","""","""","""","""","""","""","""","2021-12-31 03:55:18",74.72.142.129,"Mozilla/5.0 (Windows NT 10.0; Win64; x64) AppleWebKit/537.36 (KHTML, like Gecko) Chrome/96.0.4664.110 Safari/537.36",WebKit,Chrome,96.0.4664.110,Windows,10.0,ac0f2dffeffaa78d35a552e03d03f0a8
20,3,"""",test_procedure,stim_test,canvas-button-response,56,133505,0.0-11.0-0.0-1.5,3PKVGQTFJQLSZOM7OKJDU84QFXXYRA,A147F5PJTHOB8A,3VSOLARPKKAO25QQVKV31D473VZ93I,PLSV4,PLSV4,3VSOLARPKKAO25QQVKV31D473VZ93I,3VSOLARPKKAO25QQVKV31D473VZ93I,338054,338054,3,0.06,"""",2281.5,1,stim4,0,Counter-clockwise,false,"""",0.3,120,"""","""","2021-12-31 03:55:18",74.72.142.129,"Mozilla/5.0 (Windows NT 10.0; Win64; x64) AppleWebKit/537.36 (KHTML, like Gecko) Chrome/96.0.4664.110 Safari/537.36",WebKit,Chrome,96.0.4664.110,Windows,10.0,ac0f2dffeffaa78d35a552e03d03f0a8
20,3,"""",test_procedure,confidence_rating,html-slider-response,57,136777,0.0-11.0-0.0-2.5,3PKVGQTFJQLSZOM7OKJDU84QFXXYRA,A147F5PJTHOB8A,3VSOLARPKKAO25QQVKV31D473VZ93I,PLSV4,PLSV4,3VSOLARPKKAO25QQVKV31D473VZ93I,3VSOLARPKKAO25QQVKV31D473VZ93I,338054,338054,3,0.06,"""",3268.5,8,"<div id=""message-div""><p>How confident are you that your clockwise/counter-clockwise response just now was accurate? Please rate your confidence on the slider bar below.</p></div>","""","""","""",50,"""","""","""",8,"2021-12-31 03:55:18",74.72.142.129,"Mozilla/5.0 (Windows NT 10.0; Win64; x64) AppleWebKit/537.36 (KHTML, like Gecko) Chrome/96.0.4664.110 Safari/537.36",WebKit,Chrome,96.0.4664.110,Windows,10.0,ac0f2dffeffaa78d35a552e03d03f0a8
20,3,"""",test_procedure,fixation,html-keyboard-response,58,137279,0.0-11.0-0.0-0.6,3PKVGQTFJQLSZOM7OKJDU84QFXXYRA,A147F5PJTHOB8A,3VSOLARPKKAO25QQVKV31D473VZ93I,PLSV4,PLSV4,3VSOLARPKKAO25QQVKV31D473VZ93I,3VSOLARPKKAO25QQVKV31D473VZ93I,338054,338054,3,0.06,"""",null,null,"<div class = fixationbox><div class = fixation>+</div></div>","""","""","""","""","""","""","""","""","2021-12-31 03:55:18",74.72.142.129,"Mozilla/5.0 (Windows NT 10.0; Win64; x64) AppleWebKit/537.36 (KHTML, like Gecko) Chrome/96.0.4664.110 Safari/537.36",WebKit,Chrome,96.0.4664.110,Windows,10.0,ac0f2dffeffaa78d35a552e03d03f0a8
20,3,"""",test_procedure,stim_test,canvas-button-response,59,141571,0.0-11.0-0.0-1.6,3PKVGQTFJQLSZOM7OKJDU84QFXXYRA,A147F5PJTHOB8A,3VSOLARPKKAO25QQVKV31D473VZ93I,PLSV4,PLSV4,3VSOLARPKKAO25QQVKV31D473VZ93I,3VSOLARPKKAO25QQVKV31D473VZ93I,338054,338054,3,0.06,"""",4254,1,catchStim4,0,Counter-clockwise,false,"""",0.01,120,0.001,"""","2021-12-31 03:55:18",74.72.142.129,"Mozilla/5.0 (Windows NT 10.0; Win64; x64) AppleWebKit/537.36 (KHTML, like Gecko) Chrome/96.0.4664.110 Safari/537.36",WebKit,Chrome,96.0.4664.110,Windows,10.0,ac0f2dffeffaa78d35a552e03d03f0a8
20,3,"""",test_procedure,confidence_rating,html-slider-response,60,143711,0.0-11.0-0.0-2.6,3PKVGQTFJQLSZOM7OKJDU84QFXXYRA,A147F5PJTHOB8A,3VSOLARPKKAO25QQVKV31D473VZ93I,PLSV4,PLSV4,3VSOLARPKKAO25QQVKV31D473VZ93I,3VSOLARPKKAO25QQVKV31D473VZ93I,338054,338054,3,0.06,"""",2137.5,50,"<div id=""message-div""><p>How confident are you that your clockwise/counter-clockwise response just now was accurate? Please rate your confidence on the slider bar below.</p></div>","""","""","""",50,"""","""","""",50,"2021-12-31 03:55:18",74.72.142.129,"Mozilla/5.0 (Windows NT 10.0; Win64; x64) AppleWebKit/537.36 (KHTML, like Gecko) Chrome/96.0.4664.110 Safari/537.36",WebKit,Chrome,96.0.4664.110,Windows,10.0,ac0f2dffeffaa78d35a552e03d03f0a8
20,3,"""",test_procedure,fixation,html-keyboard-response,61,144213,0.0-11.0-0.0-0.7,3PKVGQTFJQLSZOM7OKJDU84QFXXYRA,A147F5PJTHOB8A,3VSOLARPKKAO25QQVKV31D473VZ93I,PLSV4,PLSV4,3VSOLARPKKAO25QQVKV31D473VZ93I,3VSOLARPKKAO25QQVKV31D473VZ93I,338054,338054,3,0.06,"""",null,null,"<div class = fixationbox><div class = fixation>+</div></div>","""","""","""","""","""","""","""","""","2021-12-31 03:55:18",74.72.142.129,"Mozilla/5.0 (Windows NT 10.0; Win64; x64) AppleWebKit/537.36 (KHTML, like Gecko) Chrome/96.0.4664.110 Safari/537.36",WebKit,Chrome,96.0.4664.110,Windows,10.0,ac0f2dffeffaa78d35a552e03d03f0a8
20,3,"""",test_procedure,stim_test,canvas-button-response,62,145928,0.0-11.0-0.0-1.7,3PKVGQTFJQLSZOM7OKJDU84QFXXYRA,A147F5PJTHOB8A,3VSOLARPKKAO25QQVKV31D473VZ93I,PLSV4,PLSV4,3VSOLARPKKAO25QQVKV31D473VZ93I,3VSOLARPKKAO25QQVKV31D473VZ93I,338054,338054,3,0.06,"""",1675.4000000059605,1,stim2,0,Counter-clockwise,false,"""",0.01,120,"""","""","2021-12-31 03:55:18",74.72.142.129,"Mozilla/5.0 (Windows NT 10.0; Win64; x64) AppleWebKit/537.36 (KHTML, like Gecko) Chrome/96.0.4664.110 Safari/537.36",WebKit,Chrome,96.0.4664.110,Windows,10.0,ac0f2dffeffaa78d35a552e03d03f0a8
20,3,"""",test_procedure,confidence_rating,html-slider-response,63,148607,0.0-11.0-0.0-2.7,3PKVGQTFJQLSZOM7OKJDU84QFXXYRA,A147F5PJTHOB8A,3VSOLARPKKAO25QQVKV31D473VZ93I,PLSV4,PLSV4,3VSOLARPKKAO25QQVKV31D473VZ93I,3VSOLARPKKAO25QQVKV31D473VZ93I,338054,338054,3,0.06,"""",2678.100000023842,59,"<div id=""message-div""><p>How confident are you that your clockwise/counter-clockwise response just now was accurate? Please rate your confidence on the slider bar below.</p></div>","""","""","""",50,"""","""","""",59,"2021-12-31 03:55:18",74.72.142.129,"Mozilla/5.0 (Windows NT 10.0; Win64; x64) AppleWebKit/537.36 (KHTML, like Gecko) Chrome/96.0.4664.110 Safari/537.36",WebKit,Chrome,96.0.4664.110,Windows,10.0,ac0f2dffeffaa78d35a552e03d03f0a8
20,3,"""",test_procedure,fixation,html-keyboard-response,64,149110,0.0-11.0-0.0-0.8,3PKVGQTFJQLSZOM7OKJDU84QFXXYRA,A147F5PJTHOB8A,3VSOLARPKKAO25QQVKV31D473VZ93I,PLSV4,PLSV4,3VSOLARPKKAO25QQVKV31D473VZ93I,3VSOLARPKKAO25QQVKV31D473VZ93I,338054,338054,3,0.06,"""",null,null,"<div class = fixationbox><div class = fixation>+</div></div>","""","""","""","""","""","""","""","""","2021-12-31 03:55:18",74.72.142.129,"Mozilla/5.0 (Windows NT 10.0; Win64; x64) AppleWebKit/537.36 (KHTML, like Gecko) Chrome/96.0.4664.110 Safari/537.36",WebKit,Chrome,96.0.4664.110,Windows,10.0,ac0f2dffeffaa78d35a552e03d03f0a8
20,3,"""",test_procedure,stim_test,canvas-button-response,65,154154,0.0-11.0-0.0-1.8,3PKVGQTFJQLSZOM7OKJDU84QFXXYRA,A147F5PJTHOB8A,3VSOLARPKKAO25QQVKV31D473VZ93I,PLSV4,PLSV4,3VSOLARPKKAO25QQVKV31D473VZ93I,3VSOLARPKKAO25QQVKV31D473VZ93I,338054,338054,3,0.06,"""",5005.0999999940395,1,catchStim3,1,Clockwise,true,"""",0.01,60,0.001,"""","2021-12-31 03:55:18",74.72.142.129,"Mozilla/5.0 (Windows NT 10.0; Win64; x64) AppleWebKit/537.36 (KHTML, like Gecko) Chrome/96.0.4664.110 Safari/537.36",WebKit,Chrome,96.0.4664.110,Windows,10.0,ac0f2dffeffaa78d35a552e03d03f0a8
20,3,"""",test_procedure,confidence_rating,html-slider-response,66,156257,0.0-11.0-0.0-2.8,3PKVGQTFJQLSZOM7OKJDU84QFXXYRA,A147F5PJTHOB8A,3VSOLARPKKAO25QQVKV31D473VZ93I,PLSV4,PLSV4,3VSOLARPKKAO25QQVKV31D473VZ93I,3VSOLARPKKAO25QQVKV31D473VZ93I,338054,338054,3,0.06,"""",2100.7000000178814,20,"<div id=""message-div""><p>How confident are you that your clockwise/counter-clockwise response just now was accurate? Please rate your confidence on the slider bar below.</p></div>","""","""","""",50,"""","""","""",20,"2021-12-31 03:55:18",74.72.142.129,"Mozilla/5.0 (Windows NT 10.0; Win64; x64) AppleWebKit/537.36 (KHTML, like Gecko) Chrome/96.0.4664.110 Safari/537.36",WebKit,Chrome,96.0.4664.110,Windows,10.0,ac0f2dffeffaa78d35a552e03d03f0a8
20,3,"""",test_procedure,fixation,html-keyboard-response,67,156760,0.0-11.0-0.0-0.9,3PKVGQTFJQLSZOM7OKJDU84QFXXYRA,A147F5PJTHOB8A,3VSOLARPKKAO25QQVKV31D473VZ93I,PLSV4,PLSV4,3VSOLARPKKAO25QQVKV31D473VZ93I,3VSOLARPKKAO25QQVKV31D473VZ93I,338054,338054,3,0.06,"""",null,null,"<div class = fixationbox><div class = fixation>+</div></div>","""","""","""","""","""","""","""","""","2021-12-31 03:55:18",74.72.142.129,"Mozilla/5.0 (Windows NT 10.0; Win64; x64) AppleWebKit/537.36 (KHTML, like Gecko) Chrome/96.0.4664.110 Safari/537.36",WebKit,Chrome,96.0.4664.110,Windows,10.0,ac0f2dffeffaa78d35a552e03d03f0a8
20,3,"""",test_procedure,stim_test,canvas-button-response,68,159524,0.0-11.0-0.0-1.9,3PKVGQTFJQLSZOM7OKJDU84QFXXYRA,A147F5PJTHOB8A,3VSOLARPKKAO25QQVKV31D473VZ93I,PLSV4,PLSV4,3VSOLARPKKAO25QQVKV31D473VZ93I,3VSOLARPKKAO25QQVKV31D473VZ93I,338054,338054,3,0.06,"""",2723,1,stim3,1,Clockwise,true,"""",0.3,60,"""","""","2021-12-31 03:55:18",74.72.142.129,"Mozilla/5.0 (Windows NT 10.0; Win64; x64) AppleWebKit/537.36 (KHTML, like Gecko) Chrome/96.0.4664.110 Safari/537.36",WebKit,Chrome,96.0.4664.110,Windows,10.0,ac0f2dffeffaa78d35a552e03d03f0a8
20,3,"""",test_procedure,confidence_rating,html-slider-response,69,162084,0.0-11.0-0.0-2.9,3PKVGQTFJQLSZOM7OKJDU84QFXXYRA,A147F5PJTHOB8A,3VSOLARPKKAO25QQVKV31D473VZ93I,PLSV4,PLSV4,3VSOLARPKKAO25QQVKV31D473VZ93I,3VSOLARPKKAO25QQVKV31D473VZ93I,338054,338054,3,0.06,"""",2557,35,"<div id=""message-div""><p>How confident are you that your clockwise/counter-clockwise response just now was accurate? Please rate your confidence on the slider bar below.</p></div>","""","""","""",50,"""","""","""",35,"2021-12-31 03:55:18",74.72.142.129,"Mozilla/5.0 (Windows NT 10.0; Win64; x64) AppleWebKit/537.36 (KHTML, like Gecko) Chrome/96.0.4664.110 Safari/537.36",WebKit,Chrome,96.0.4664.110,Windows,10.0,ac0f2dffeffaa78d35a552e03d03f0a8
20,3,"""",test_procedure,fixation,html-keyboard-response,70,162586,0.0-11.0-0.0-0.10,3PKVGQTFJQLSZOM7OKJDU84QFXXYRA,A147F5PJTHOB8A,3VSOLARPKKAO25QQVKV31D473VZ93I,PLSV4,PLSV4,3VSOLARPKKAO25QQVKV31D473VZ93I,3VSOLARPKKAO25QQVKV31D473VZ93I,338054,338054,3,0.06,"""",null,null,"<div class = fixationbox><div class = fixation>+</div></div>","""","""","""","""","""","""","""","""","2021-12-31 03:55:18",74.72.142.129,"Mozilla/5.0 (Windows NT 10.0; Win64; x64) AppleWebKit/537.36 (KHTML, like Gecko) Chrome/96.0.4664.110 Safari/537.36",WebKit,Chrome,96.0.4664.110,Windows,10.0,ac0f2dffeffaa78d35a552e03d03f0a8
20,3,"""",test_procedure,stim_test,canvas-button-response,71,165508,0.0-11.0-0.0-1.10,3PKVGQTFJQLSZOM7OKJDU84QFXXYRA,A147F5PJTHOB8A,3VSOLARPKKAO25QQVKV31D473VZ93I,PLSV4,PLSV4,3VSOLARPKKAO25QQVKV31D473VZ93I,3VSOLARPKKAO25QQVKV31D473VZ93I,338054,338054,3,0.06,"""",2881.5,0,stim3,1,Clockwise,false,"""",0.3,60,"""","""","2021-12-31 03:55:18",74.72.142.129,"Mozilla/5.0 (Windows NT 10.0; Win64; x64) AppleWebKit/537.36 (KHTML, like Gecko) Chrome/96.0.4664.110 Safari/537.36",WebKit,Chrome,96.0.4664.110,Windows,10.0,ac0f2dffeffaa78d35a552e03d03f0a8
20,3,"""",test_procedure,confidence_rating,html-slider-response,72,168832,0.0-11.0-0.0-2.10,3PKVGQTFJQLSZOM7OKJDU84QFXXYRA,A147F5PJTHOB8A,3VSOLARPKKAO25QQVKV31D473VZ93I,PLSV4,PLSV4,3VSOLARPKKAO25QQVKV31D473VZ93I,3VSOLARPKKAO25QQVKV31D473VZ93I,338054,338054,3,0.06,"""",3320.9000000059605,12,"<div id=""message-div""><p>How confident are you that your clockwise/counter-clockwise response just now was accurate? Please rate your confidence on the slider bar below.</p></div>","""","""","""",50,"""","""","""",12,"2021-12-31 03:55:18",74.72.142.129,"Mozilla/5.0 (Windows NT 10.0; Win64; x64) AppleWebKit/537.36 (KHTML, like Gecko) Chrome/96.0.4664.110 Safari/537.36",WebKit,Chrome,96.0.4664.110,Windows,10.0,ac0f2dffeffaa78d35a552e03d03f0a8
20,3,"""",test_procedure,fixation,html-keyboard-response,73,169334,0.0-11.0-0.0-0.11,3PKVGQTFJQLSZOM7OKJDU84QFXXYRA,A147F5PJTHOB8A,3VSOLARPKKAO25QQVKV31D473VZ93I,PLSV4,PLSV4,3VSOLARPKKAO25QQVKV31D473VZ93I,3VSOLARPKKAO25QQVKV31D473VZ93I,338054,338054,3,0.06,"""",null,null,"<div class = fixationbox><div class = fixation>+</div></div>","""","""","""","""","""","""","""","""","2021-12-31 03:55:18",74.72.142.129,"Mozilla/5.0 (Windows NT 10.0; Win64; x64) AppleWebKit/537.36 (KHTML, like Gecko) Chrome/96.0.4664.110 Safari/537.36",WebKit,Chrome,96.0.4664.110,Windows,10.0,ac0f2dffeffaa78d35a552e03d03f0a8
20,3,"""",test_procedure,stim_test,canvas-button-response,74,171910,0.0-11.0-0.0-1.11,3PKVGQTFJQLSZOM7OKJDU84QFXXYRA,A147F5PJTHOB8A,3VSOLARPKKAO25QQVKV31D473VZ93I,PLSV4,PLSV4,3VSOLARPKKAO25QQVKV31D473VZ93I,3VSOLARPKKAO25QQVKV31D473VZ93I,338054,338054,3,0.06,"""",2540.0999999940395,0,stim1,1,Clockwise,false,"""",0.01,60,"""","""","2021-12-31 03:55:18",74.72.142.129,"Mozilla/5.0 (Windows NT 10.0; Win64; x64) AppleWebKit/537.36 (KHTML, like Gecko) Chrome/96.0.4664.110 Safari/537.36",WebKit,Chrome,96.0.4664.110,Windows,10.0,ac0f2dffeffaa78d35a552e03d03f0a8
20,3,"""",test_procedure,confidence_rating,html-slider-response,75,173831,0.0-11.0-0.0-2.11,3PKVGQTFJQLSZOM7OKJDU84QFXXYRA,A147F5PJTHOB8A,3VSOLARPKKAO25QQVKV31D473VZ93I,PLSV4,PLSV4,3VSOLARPKKAO25QQVKV31D473VZ93I,3VSOLARPKKAO25QQVKV31D473VZ93I,338054,338054,3,0.06,"""",1917.8999999761581,29,"<div id=""message-div""><p>How confident are you that your clockwise/counter-clockwise response just now was accurate? Please rate your confidence on the slider bar below.</p></div>","""","""","""",50,"""","""","""",29,"2021-12-31 03:55:18",74.72.142.129,"Mozilla/5.0 (Windows NT 10.0; Win64; x64) AppleWebKit/537.36 (KHTML, like Gecko) Chrome/96.0.4664.110 Safari/537.36",WebKit,Chrome,96.0.4664.110,Windows,10.0,ac0f2dffeffaa78d35a552e03d03f0a8
20,3,"""",test_procedure,fixation,html-keyboard-response,76,174333,0.0-11.0-0.0-0.12,3PKVGQTFJQLSZOM7OKJDU84QFXXYRA,A147F5PJTHOB8A,3VSOLARPKKAO25QQVKV31D473VZ93I,PLSV4,PLSV4,3VSOLARPKKAO25QQVKV31D473VZ93I,3VSOLARPKKAO25QQVKV31D473VZ93I,338054,338054,3,0.06,"""",null,null,"<div class = fixationbox><div class = fixation>+</div></div>","""","""","""","""","""","""","""","""","2021-12-31 03:55:18",74.72.142.129,"Mozilla/5.0 (Windows NT 10.0; Win64; x64) AppleWebKit/537.36 (KHTML, like Gecko) Chrome/96.0.4664.110 Safari/537.36",WebKit,Chrome,96.0.4664.110,Windows,10.0,ac0f2dffeffaa78d35a552e03d03f0a8
20,3,"""",test_procedure,stim_test,canvas-button-response,77,176314,0.0-11.0-0.0-1.12,3PKVGQTFJQLSZOM7OKJDU84QFXXYRA,A147F5PJTHOB8A,3VSOLARPKKAO25QQVKV31D473VZ93I,PLSV4,PLSV4,3VSOLARPKKAO25QQVKV31D473VZ93I,3VSOLARPKKAO25QQVKV31D473VZ93I,338054,338054,3,0.06,"""",1940,1,stim2,0,Counter-clockwise,false,"""",0.01,120,"""","""","2021-12-31 03:55:18",74.72.142.129,"Mozilla/5.0 (Windows NT 10.0; Win64; x64) AppleWebKit/537.36 (KHTML, like Gecko) Chrome/96.0.4664.110 Safari/537.36",WebKit,Chrome,96.0.4664.110,Windows,10.0,ac0f2dffeffaa78d35a552e03d03f0a8
20,3,"""",test_procedure,confidence_rating,html-slider-response,78,180223,0.0-11.0-0.0-2.12,3PKVGQTFJQLSZOM7OKJDU84QFXXYRA,A147F5PJTHOB8A,3VSOLARPKKAO25QQVKV31D473VZ93I,PLSV4,PLSV4,3VSOLARPKKAO25QQVKV31D473VZ93I,3VSOLARPKKAO25QQVKV31D473VZ93I,338054,338054,3,0.06,"""",3907.199999988079,61,"<div id=""message-div""><p>How confident are you that your clockwise/counter-clockwise response just now was accurate? Please rate your confidence on the slider bar below.</p></div>","""","""","""",50,"""","""","""",61,"2021-12-31 03:55:18",74.72.142.129,"Mozilla/5.0 (Windows NT 10.0; Win64; x64) AppleWebKit/537.36 (KHTML, like Gecko) Chrome/96.0.4664.110 Safari/537.36",WebKit,Chrome,96.0.4664.110,Windows,10.0,ac0f2dffeffaa78d35a552e03d03f0a8
20,3,"""",test_procedure,fixation,html-keyboard-response,79,180726,0.0-11.0-0.0-0.13,3PKVGQTFJQLSZOM7OKJDU84QFXXYRA,A147F5PJTHOB8A,3VSOLARPKKAO25QQVKV31D473VZ93I,PLSV4,PLSV4,3VSOLARPKKAO25QQVKV31D473VZ93I,3VSOLARPKKAO25QQVKV31D473VZ93I,338054,338054,3,0.06,"""",null,null,"<div class = fixationbox><div class = fixation>+</div></div>","""","""","""","""","""","""","""","""","2021-12-31 03:55:18",74.72.142.129,"Mozilla/5.0 (Windows NT 10.0; Win64; x64) AppleWebKit/537.36 (KHTML, like Gecko) Chrome/96.0.4664.110 Safari/537.36",WebKit,Chrome,96.0.4664.110,Windows,10.0,ac0f2dffeffaa78d35a552e03d03f0a8
20,3,"""",test_procedure,stim_test,canvas-button-response,80,183519,0.0-11.0-0.0-1.13,3PKVGQTFJQLSZOM7OKJDU84QFXXYRA,A147F5PJTHOB8A,3VSOLARPKKAO25QQVKV31D473VZ93I,PLSV4,PLSV4,3VSOLARPKKAO25QQVKV31D473VZ93I,3VSOLARPKKAO25QQVKV31D473VZ93I,338054,338054,3,0.06,"""",2756.800000011921,0,catchStim7,1,Clockwise,false,"""",0.3,60,0.001,"""","2021-12-31 03:55:18",74.72.142.129,"Mozilla/5.0 (Windows NT 10.0; Win64; x64) AppleWebKit/537.36 (KHTML, like Gecko) Chrome/96.0.4664.110 Safari/537.36",WebKit,Chrome,96.0.4664.110,Windows,10.0,ac0f2dffeffaa78d35a552e03d03f0a8
20,3,"""",test_procedure,confidence_rating,html-slider-response,81,185646,0.0-11.0-0.0-2.13,3PKVGQTFJQLSZOM7OKJDU84QFXXYRA,A147F5PJTHOB8A,3VSOLARPKKAO25QQVKV31D473VZ93I,PLSV4,PLSV4,3VSOLARPKKAO25QQVKV31D473VZ93I,3VSOLARPKKAO25QQVKV31D473VZ93I,338054,338054,3,0.06,"""",2125.5999999940395,61,"<div id=""message-div""><p>How confident are you that your clockwise/counter-clockwise response just now was accurate? Please rate your confidence on the slider bar below.</p></div>","""","""","""",50,"""","""","""",61,"2021-12-31 03:55:18",74.72.142.129,"Mozilla/5.0 (Windows NT 10.0; Win64; x64) AppleWebKit/537.36 (KHTML, like Gecko) Chrome/96.0.4664.110 Safari/537.36",WebKit,Chrome,96.0.4664.110,Windows,10.0,ac0f2dffeffaa78d35a552e03d03f0a8
20,3,"""",test_procedure,fixation,html-keyboard-response,82,186149,0.0-11.0-0.0-0.14,3PKVGQTFJQLSZOM7OKJDU84QFXXYRA,A147F5PJTHOB8A,3VSOLARPKKAO25QQVKV31D473VZ93I,PLSV4,PLSV4,3VSOLARPKKAO25QQVKV31D473VZ93I,3VSOLARPKKAO25QQVKV31D473VZ93I,338054,338054,3,0.06,"""",null,null,"<div class = fixationbox><div class = fixation>+</div></div>","""","""","""","""","""","""","""","""","2021-12-31 03:55:18",74.72.142.129,"Mozilla/5.0 (Windows NT 10.0; Win64; x64) AppleWebKit/537.36 (KHTML, like Gecko) Chrome/96.0.4664.110 Safari/537.36",WebKit,Chrome,96.0.4664.110,Windows,10.0,ac0f2dffeffaa78d35a552e03d03f0a8
20,3,"""",test_procedure,stim_test,canvas-button-response,83,188610,0.0-11.0-0.0-1.14,3PKVGQTFJQLSZOM7OKJDU84QFXXYRA,A147F5PJTHOB8A,3VSOLARPKKAO25QQVKV31D473VZ93I,PLSV4,PLSV4,3VSOLARPKKAO25QQVKV31D473VZ93I,3VSOLARPKKAO25QQVKV31D473VZ93I,338054,338054,3,0.06,"""",2424.5999999940395,0,catchStim2,0,Counter-clockwise,true,"""",0.01,120,0.6,"""","2021-12-31 03:55:18",74.72.142.129,"Mozilla/5.0 (Windows NT 10.0; Win64; x64) AppleWebKit/537.36 (KHTML, like Gecko) Chrome/96.0.4664.110 Safari/537.36",WebKit,Chrome,96.0.4664.110,Windows,10.0,ac0f2dffeffaa78d35a552e03d03f0a8
20,3,"""",test_procedure,confidence_rating,html-slider-response,84,190356,0.0-11.0-0.0-2.14,3PKVGQTFJQLSZOM7OKJDU84QFXXYRA,A147F5PJTHOB8A,3VSOLARPKKAO25QQVKV31D473VZ93I,PLSV4,PLSV4,3VSOLARPKKAO25QQVKV31D473VZ93I,3VSOLARPKKAO25QQVKV31D473VZ93I,338054,338054,3,0.06,"""",1744.300000011921,98,"<div id=""message-div""><p>How confident are you that your clockwise/counter-clockwise response just now was accurate? Please rate your confidence on the slider bar below.</p></div>","""","""","""",50,"""","""","""",98,"2021-12-31 03:55:18",74.72.142.129,"Mozilla/5.0 (Windows NT 10.0; Win64; x64) AppleWebKit/537.36 (KHTML, like Gecko) Chrome/96.0.4664.110 Safari/537.36",WebKit,Chrome,96.0.4664.110,Windows,10.0,ac0f2dffeffaa78d35a552e03d03f0a8
20,3,"""",test_procedure,fixation,html-keyboard-response,85,190858,0.0-11.0-0.0-0.15,3PKVGQTFJQLSZOM7OKJDU84QFXXYRA,A147F5PJTHOB8A,3VSOLARPKKAO25QQVKV31D473VZ93I,PLSV4,PLSV4,3VSOLARPKKAO25QQVKV31D473VZ93I,3VSOLARPKKAO25QQVKV31D473VZ93I,338054,338054,3,0.06,"""",null,null,"<div class = fixationbox><div class = fixation>+</div></div>","""","""","""","""","""","""","""","""","2021-12-31 03:55:18",74.72.142.129,"Mozilla/5.0 (Windows NT 10.0; Win64; x64) AppleWebKit/537.36 (KHTML, like Gecko) Chrome/96.0.4664.110 Safari/537.36",WebKit,Chrome,96.0.4664.110,Windows,10.0,ac0f2dffeffaa78d35a552e03d03f0a8
20,3,"""",test_procedure,stim_test,canvas-button-response,86,193633,0.0-11.0-0.0-1.15,3PKVGQTFJQLSZOM7OKJDU84QFXXYRA,A147F5PJTHOB8A,3VSOLARPKKAO25QQVKV31D473VZ93I,PLSV4,PLSV4,3VSOLARPKKAO25QQVKV31D473VZ93I,3VSOLARPKKAO25QQVKV31D473VZ93I,338054,338054,3,0.06,"""",2738.199999988079,1,stim1,1,Clockwise,true,"""",0.01,60,"""","""","2021-12-31 03:55:18",74.72.142.129,"Mozilla/5.0 (Windows NT 10.0; Win64; x64) AppleWebKit/537.36 (KHTML, like Gecko) Chrome/96.0.4664.110 Safari/537.36",WebKit,Chrome,96.0.4664.110,Windows,10.0,ac0f2dffeffaa78d35a552e03d03f0a8
20,3,"""",test_procedure,confidence_rating,html-slider-response,87,196360,0.0-11.0-0.0-2.15,3PKVGQTFJQLSZOM7OKJDU84QFXXYRA,A147F5PJTHOB8A,3VSOLARPKKAO25QQVKV31D473VZ93I,PLSV4,PLSV4,3VSOLARPKKAO25QQVKV31D473VZ93I,3VSOLARPKKAO25QQVKV31D473VZ93I,338054,338054,3,0.06,"""",2724.0999999940395,77,"<div id=""message-div""><p>How confident are you that your clockwise/counter-clockwise response just now was accurate? Please rate your confidence on the slider bar below.</p></div>","""","""","""",50,"""","""","""",77,"2021-12-31 03:55:18",74.72.142.129,"Mozilla/5.0 (Windows NT 10.0; Win64; x64) AppleWebKit/537.36 (KHTML, like Gecko) Chrome/96.0.4664.110 Safari/537.36",WebKit,Chrome,96.0.4664.110,Windows,10.0,ac0f2dffeffaa78d35a552e03d03f0a8
20,3,"""",test_procedure,fixation,html-keyboard-response,88,196862,0.0-11.0-0.0-0.16,3PKVGQTFJQLSZOM7OKJDU84QFXXYRA,A147F5PJTHOB8A,3VSOLARPKKAO25QQVKV31D473VZ93I,PLSV4,PLSV4,3VSOLARPKKAO25QQVKV31D473VZ93I,3VSOLARPKKAO25QQVKV31D473VZ93I,338054,338054,3,0.06,"""",null,null,"<div class = fixationbox><div class = fixation>+</div></div>","""","""","""","""","""","""","""","""","2021-12-31 03:55:18",74.72.142.129,"Mozilla/5.0 (Windows NT 10.0; Win64; x64) AppleWebKit/537.36 (KHTML, like Gecko) Chrome/96.0.4664.110 Safari/537.36",WebKit,Chrome,96.0.4664.110,Windows,10.0,ac0f2dffeffaa78d35a552e03d03f0a8
20,3,"""",test_procedure,stim_test,canvas-button-response,89,198585,0.0-11.0-0.0-1.16,3PKVGQTFJQLSZOM7OKJDU84QFXXYRA,A147F5PJTHOB8A,3VSOLARPKKAO25QQVKV31D473VZ93I,PLSV4,PLSV4,3VSOLARPKKAO25QQVKV31D473VZ93I,3VSOLARPKKAO25QQVKV31D473VZ93I,338054,338054,3,0.06,"""",1679.800000011921,1,stim1,1,Clockwise,true,"""",0.01,60,"""","""","2021-12-31 03:55:18",74.72.142.129,"Mozilla/5.0 (Windows NT 10.0; Win64; x64) AppleWebKit/537.36 (KHTML, like Gecko) Chrome/96.0.4664.110 Safari/537.36",WebKit,Chrome,96.0.4664.110,Windows,10.0,ac0f2dffeffaa78d35a552e03d03f0a8
20,3,"""",test_procedure,confidence_rating,html-slider-response,90,200418,0.0-11.0-0.0-2.16,3PKVGQTFJQLSZOM7OKJDU84QFXXYRA,A147F5PJTHOB8A,3VSOLARPKKAO25QQVKV31D473VZ93I,PLSV4,PLSV4,3VSOLARPKKAO25QQVKV31D473VZ93I,3VSOLARPKKAO25QQVKV31D473VZ93I,338054,338054,3,0.06,"""",1832.300000011921,52,"<div id=""message-div""><p>How confident are you that your clockwise/counter-clockwise response just now was accurate? Please rate your confidence on the slider bar below.</p></div>","""","""","""",50,"""","""","""",52,"2021-12-31 03:55:18",74.72.142.129,"Mozilla/5.0 (Windows NT 10.0; Win64; x64) AppleWebKit/537.36 (KHTML, like Gecko) Chrome/96.0.4664.110 Safari/537.36",WebKit,Chrome,96.0.4664.110,Windows,10.0,ac0f2dffeffaa78d35a552e03d03f0a8
20,3,"""",test_procedure,fixation,html-keyboard-response,91,200921,0.0-11.0-0.0-0.17,3PKVGQTFJQLSZOM7OKJDU84QFXXYRA,A147F5PJTHOB8A,3VSOLARPKKAO25QQVKV31D473VZ93I,PLSV4,PLSV4,3VSOLARPKKAO25QQVKV31D473VZ93I,3VSOLARPKKAO25QQVKV31D473VZ93I,338054,338054,3,0.06,"""",null,null,"<div class = fixationbox><div class = fixation>+</div></div>","""","""","""","""","""","""","""","""","2021-12-31 03:55:18",74.72.142.129,"Mozilla/5.0 (Windows NT 10.0; Win64; x64) AppleWebKit/537.36 (KHTML, like Gecko) Chrome/96.0.4664.110 Safari/537.36",WebKit,Chrome,96.0.4664.110,Windows,10.0,ac0f2dffeffaa78d35a552e03d03f0a8
20,3,"""",test_procedure,stim_test,canvas-button-response,92,203432,0.0-11.0-0.0-1.17,3PKVGQTFJQLSZOM7OKJDU84QFXXYRA,A147F5PJTHOB8A,3VSOLARPKKAO25QQVKV31D473VZ93I,PLSV4,PLSV4,3VSOLARPKKAO25QQVKV31D473VZ93I,3VSOLARPKKAO25QQVKV31D473VZ93I,338054,338054,3,0.06,"""",2474.399999976158,0,stim2,0,Counter-clockwise,true,"""",0.01,120,"""","""","2021-12-31 03:55:18",74.72.142.129,"Mozilla/5.0 (Windows NT 10.0; Win64; x64) AppleWebKit/537.36 (KHTML, like Gecko) Chrome/96.0.4664.110 Safari/537.36",WebKit,Chrome,96.0.4664.110,Windows,10.0,ac0f2dffeffaa78d35a552e03d03f0a8
20,3,"""",test_procedure,confidence_rating,html-slider-response,93,205423,0.0-11.0-0.0-2.17,3PKVGQTFJQLSZOM7OKJDU84QFXXYRA,A147F5PJTHOB8A,3VSOLARPKKAO25QQVKV31D473VZ93I,PLSV4,PLSV4,3VSOLARPKKAO25QQVKV31D473VZ93I,3VSOLARPKKAO25QQVKV31D473VZ93I,338054,338054,3,0.06,"""",1989.800000011921,30,"<div id=""message-div""><p>How confident are you that your clockwise/counter-clockwise response just now was accurate? Please rate your confidence on the slider bar below.</p></div>","""","""","""",50,"""","""","""",30,"2021-12-31 03:55:18",74.72.142.129,"Mozilla/5.0 (Windows NT 10.0; Win64; x64) AppleWebKit/537.36 (KHTML, like Gecko) Chrome/96.0.4664.110 Safari/537.36",WebKit,Chrome,96.0.4664.110,Windows,10.0,ac0f2dffeffaa78d35a552e03d03f0a8
20,3,"""",test_procedure,fixation,html-keyboard-response,94,205926,0.0-11.0-0.0-0.18,3PKVGQTFJQLSZOM7OKJDU84QFXXYRA,A147F5PJTHOB8A,3VSOLARPKKAO25QQVKV31D473VZ93I,PLSV4,PLSV4,3VSOLARPKKAO25QQVKV31D473VZ93I,3VSOLARPKKAO25QQVKV31D473VZ93I,338054,338054,3,0.06,"""",null,null,"<div class = fixationbox><div class = fixation>+</div></div>","""","""","""","""","""","""","""","""","2021-12-31 03:55:18",74.72.142.129,"Mozilla/5.0 (Windows NT 10.0; Win64; x64) AppleWebKit/537.36 (KHTML, like Gecko) Chrome/96.0.4664.110 Safari/537.36",WebKit,Chrome,96.0.4664.110,Windows,10.0,ac0f2dffeffaa78d35a552e03d03f0a8
20,3,"""",test_procedure,stim_test,canvas-button-response,95,207925,0.0-11.0-0.0-1.18,3PKVGQTFJQLSZOM7OKJDU84QFXXYRA,A147F5PJTHOB8A,3VSOLARPKKAO25QQVKV31D473VZ93I,PLSV4,PLSV4,3VSOLARPKKAO25QQVKV31D473VZ93I,3VSOLARPKKAO25QQVKV31D473VZ93I,338054,338054,3,0.06,"""",1961.4000000059605,1,catchStim5,1,Clockwise,true,"""",0.3,60,0.6,"""","2021-12-31 03:55:18",74.72.142.129,"Mozilla/5.0 (Windows NT 10.0; Win64; x64) AppleWebKit/537.36 (KHTML, like Gecko) Chrome/96.0.4664.110 Safari/537.36",WebKit,Chrome,96.0.4664.110,Windows,10.0,ac0f2dffeffaa78d35a552e03d03f0a8
20,3,"""",test_procedure,confidence_rating,html-slider-response,96,209807,0.0-11.0-0.0-2.18,3PKVGQTFJQLSZOM7OKJDU84QFXXYRA,A147F5PJTHOB8A,3VSOLARPKKAO25QQVKV31D473VZ93I,PLSV4,PLSV4,3VSOLARPKKAO25QQVKV31D473VZ93I,3VSOLARPKKAO25QQVKV31D473VZ93I,338054,338054,3,0.06,"""",1880.3999999761581,100,"<div id=""message-div""><p>How confident are you that your clockwise/counter-clockwise response just now was accurate? Please rate your confidence on the slider bar below.</p></div>","""","""","""",50,"""","""","""",100,"2021-12-31 03:55:18",74.72.142.129,"Mozilla/5.0 (Windows NT 10.0; Win64; x64) AppleWebKit/537.36 (KHTML, like Gecko) Chrome/96.0.4664.110 Safari/537.36",WebKit,Chrome,96.0.4664.110,Windows,10.0,ac0f2dffeffaa78d35a552e03d03f0a8
20,3,"""",test_procedure,fixation,html-keyboard-response,97,210308,0.0-11.0-0.0-0.19,3PKVGQTFJQLSZOM7OKJDU84QFXXYRA,A147F5PJTHOB8A,3VSOLARPKKAO25QQVKV31D473VZ93I,PLSV4,PLSV4,3VSOLARPKKAO25QQVKV31D473VZ93I,3VSOLARPKKAO25QQVKV31D473VZ93I,338054,338054,3,0.06,"""",null,null,"<div class = fixationbox><div class = fixation>+</div></div>","""","""","""","""","""","""","""","""","2021-12-31 03:55:18",74.72.142.129,"Mozilla/5.0 (Windows NT 10.0; Win64; x64) AppleWebKit/537.36 (KHTML, like Gecko) Chrome/96.0.4664.110 Safari/537.36",WebKit,Chrome,96.0.4664.110,Windows,10.0,ac0f2dffeffaa78d35a552e03d03f0a8
20,3,"""",test_procedure,stim_test,canvas-button-response,98,211702,0.0-11.0-0.0-1.19,3PKVGQTFJQLSZOM7OKJDU84QFXXYRA,A147F5PJTHOB8A,3VSOLARPKKAO25QQVKV31D473VZ93I,PLSV4,PLSV4,3VSOLARPKKAO25QQVKV31D473VZ93I,3VSOLARPKKAO25QQVKV31D473VZ93I,338054,338054,3,0.06,"""",1355.5999999940395,0,stim3,1,Clockwise,false,"""",0.3,60,"""","""","2021-12-31 03:55:18",74.72.142.129,"Mozilla/5.0 (Windows NT 10.0; Win64; x64) AppleWebKit/537.36 (KHTML, like Gecko) Chrome/96.0.4664.110 Safari/537.36",WebKit,Chrome,96.0.4664.110,Windows,10.0,ac0f2dffeffaa78d35a552e03d03f0a8
20,3,"""",test_procedure,confidence_rating,html-slider-response,99,213259,0.0-11.0-0.0-2.19,3PKVGQTFJQLSZOM7OKJDU84QFXXYRA,A147F5PJTHOB8A,3VSOLARPKKAO25QQVKV31D473VZ93I,PLSV4,PLSV4,3VSOLARPKKAO25QQVKV31D473VZ93I,3VSOLARPKKAO25QQVKV31D473VZ93I,338054,338054,3,0.06,"""",1553.5,65,"<div id=""message-div""><p>How confident are you that your clockwise/counter-clockwise response just now was accurate? Please rate your confidence on the slider bar below.</p></div>","""","""","""",50,"""","""","""",65,"2021-12-31 03:55:18",74.72.142.129,"Mozilla/5.0 (Windows NT 10.0; Win64; x64) AppleWebKit/537.36 (KHTML, like Gecko) Chrome/96.0.4664.110 Safari/537.36",WebKit,Chrome,96.0.4664.110,Windows,10.0,ac0f2dffeffaa78d35a552e03d03f0a8
20,3,"""",test_procedure,fixation,html-keyboard-response,100,213760,0.0-11.0-0.0-0.20,3PKVGQTFJQLSZOM7OKJDU84QFXXYRA,A147F5PJTHOB8A,3VSOLARPKKAO25QQVKV31D473VZ93I,PLSV4,PLSV4,3VSOLARPKKAO25QQVKV31D473VZ93I,3VSOLARPKKAO25QQVKV31D473VZ93I,338054,338054,3,0.06,"""",null,null,"<div class = fixationbox><div class = fixation>+</div></div>","""","""","""","""","""","""","""","""","2021-12-31 03:55:18",74.72.142.129,"Mozilla/5.0 (Windows NT 10.0; Win64; x64) AppleWebKit/537.36 (KHTML, like Gecko) Chrome/96.0.4664.110 Safari/537.36",WebKit,Chrome,96.0.4664.110,Windows,10.0,ac0f2dffeffaa78d35a552e03d03f0a8
20,3,"""",test_procedure,stim_test,canvas-button-response,101,215629,0.0-11.0-0.0-1.20,3PKVGQTFJQLSZOM7OKJDU84QFXXYRA,A147F5PJTHOB8A,3VSOLARPKKAO25QQVKV31D473VZ93I,PLSV4,PLSV4,3VSOLARPKKAO25QQVKV31D473VZ93I,3VSOLARPKKAO25QQVKV31D473VZ93I,338054,338054,3,0.06,"""",1832.4000000059605,0,stim2,0,Counter-clockwise,true,"""",0.01,120,"""","""","2021-12-31 03:55:18",74.72.142.129,"Mozilla/5.0 (Windows NT 10.0; Win64; x64) AppleWebKit/537.36 (KHTML, like Gecko) Chrome/96.0.4664.110 Safari/537.36",WebKit,Chrome,96.0.4664.110,Windows,10.0,ac0f2dffeffaa78d35a552e03d03f0a8
20,3,"""",test_procedure,confidence_rating,html-slider-response,102,217434,0.0-11.0-0.0-2.20,3PKVGQTFJQLSZOM7OKJDU84QFXXYRA,A147F5PJTHOB8A,3VSOLARPKKAO25QQVKV31D473VZ93I,PLSV4,PLSV4,3VSOLARPKKAO25QQVKV31D473VZ93I,3VSOLARPKKAO25QQVKV31D473VZ93I,338054,338054,3,0.06,"""",1803.9000000059605,14,"<div id=""message-div""><p>How confident are you that your clockwise/counter-clockwise response just now was accurate? Please rate your confidence on the slider bar below.</p></div>","""","""","""",50,"""","""","""",14,"2021-12-31 03:55:18",74.72.142.129,"Mozilla/5.0 (Windows NT 10.0; Win64; x64) AppleWebKit/537.36 (KHTML, like Gecko) Chrome/96.0.4664.110 Safari/537.36",WebKit,Chrome,96.0.4664.110,Windows,10.0,ac0f2dffeffaa78d35a552e03d03f0a8
20,3,"""",test_procedure,fixation,html-keyboard-response,103,217938,0.0-11.0-0.0-0.21,3PKVGQTFJQLSZOM7OKJDU84QFXXYRA,A147F5PJTHOB8A,3VSOLARPKKAO25QQVKV31D473VZ93I,PLSV4,PLSV4,3VSOLARPKKAO25QQVKV31D473VZ93I,3VSOLARPKKAO25QQVKV31D473VZ93I,338054,338054,3,0.06,"""",null,null,"<div class = fixationbox><div class = fixation>+</div></div>","""","""","""","""","""","""","""","""","2021-12-31 03:55:18",74.72.142.129,"Mozilla/5.0 (Windows NT 10.0; Win64; x64) AppleWebKit/537.36 (KHTML, like Gecko) Chrome/96.0.4664.110 Safari/537.36",WebKit,Chrome,96.0.4664.110,Windows,10.0,ac0f2dffeffaa78d35a552e03d03f0a8
20,3,"""",test_procedure,stim_test,canvas-button-response,104,219547,0.0-11.0-0.0-1.21,3PKVGQTFJQLSZOM7OKJDU84QFXXYRA,A147F5PJTHOB8A,3VSOLARPKKAO25QQVKV31D473VZ93I,PLSV4,PLSV4,3VSOLARPKKAO25QQVKV31D473VZ93I,3VSOLARPKKAO25QQVKV31D473VZ93I,338054,338054,3,0.06,"""",1571.2000000178814,0,catchStim8,0,Counter-clockwise,true,"""",0.3,120,0.001,"""","2021-12-31 03:55:18",74.72.142.129,"Mozilla/5.0 (Windows NT 10.0; Win64; x64) AppleWebKit/537.36 (KHTML, like Gecko) Chrome/96.0.4664.110 Safari/537.36",WebKit,Chrome,96.0.4664.110,Windows,10.0,ac0f2dffeffaa78d35a552e03d03f0a8
20,3,"""",test_procedure,confidence_rating,html-slider-response,105,221809,0.0-11.0-0.0-2.21,3PKVGQTFJQLSZOM7OKJDU84QFXXYRA,A147F5PJTHOB8A,3VSOLARPKKAO25QQVKV31D473VZ93I,PLSV4,PLSV4,3VSOLARPKKAO25QQVKV31D473VZ93I,3VSOLARPKKAO25QQVKV31D473VZ93I,338054,338054,3,0.06,"""",2261.7000000178814,0,"<div id=""message-div""><p>How confident are you that your clockwise/counter-clockwise response just now was accurate? Please rate your confidence on the slider bar below.</p></div>","""","""","""",50,"""","""","""",0,"2021-12-31 03:55:18",74.72.142.129,"Mozilla/5.0 (Windows NT 10.0; Win64; x64) AppleWebKit/537.36 (KHTML, like Gecko) Chrome/96.0.4664.110 Safari/537.36",WebKit,Chrome,96.0.4664.110,Windows,10.0,ac0f2dffeffaa78d35a552e03d03f0a8
20,3,"""",test_procedure,fixation,html-keyboard-response,106,222312,0.0-11.0-0.0-0.22,3PKVGQTFJQLSZOM7OKJDU84QFXXYRA,A147F5PJTHOB8A,3VSOLARPKKAO25QQVKV31D473VZ93I,PLSV4,PLSV4,3VSOLARPKKAO25QQVKV31D473VZ93I,3VSOLARPKKAO25QQVKV31D473VZ93I,338054,338054,3,0.06,"""",null,null,"<div class = fixationbox><div class = fixation>+</div></div>","""","""","""","""","""","""","""","""","2021-12-31 03:55:18",74.72.142.129,"Mozilla/5.0 (Windows NT 10.0; Win64; x64) AppleWebKit/537.36 (KHTML, like Gecko) Chrome/96.0.4664.110 Safari/537.36",WebKit,Chrome,96.0.4664.110,Windows,10.0,ac0f2dffeffaa78d35a552e03d03f0a8
20,3,"""",test_procedure,stim_test,canvas-button-response,107,224363,0.0-11.0-0.0-1.22,3PKVGQTFJQLSZOM7OKJDU84QFXXYRA,A147F5PJTHOB8A,3VSOLARPKKAO25QQVKV31D473VZ93I,PLSV4,PLSV4,3VSOLARPKKAO25QQVKV31D473VZ93I,3VSOLARPKKAO25QQVKV31D473VZ93I,338054,338054,3,0.06,"""",2012.699999988079,0,catchStim1,1,Clockwise,false,"""",0.01,60,0.6,"""","2021-12-31 03:55:18",74.72.142.129,"Mozilla/5.0 (Windows NT 10.0; Win64; x64) AppleWebKit/537.36 (KHTML, like Gecko) Chrome/96.0.4664.110 Safari/537.36",WebKit,Chrome,96.0.4664.110,Windows,10.0,ac0f2dffeffaa78d35a552e03d03f0a8
20,3,"""",test_procedure,confidence_rating,html-slider-response,108,226241,0.0-11.0-0.0-2.22,3PKVGQTFJQLSZOM7OKJDU84QFXXYRA,A147F5PJTHOB8A,3VSOLARPKKAO25QQVKV31D473VZ93I,PLSV4,PLSV4,3VSOLARPKKAO25QQVKV31D473VZ93I,3VSOLARPKKAO25QQVKV31D473VZ93I,338054,338054,3,0.06,"""",1875.2000000178814,100,"<div id=""message-div""><p>How confident are you that your clockwise/counter-clockwise response just now was accurate? Please rate your confidence on the slider bar below.</p></div>","""","""","""",50,"""","""","""",100,"2021-12-31 03:55:18",74.72.142.129,"Mozilla/5.0 (Windows NT 10.0; Win64; x64) AppleWebKit/537.36 (KHTML, like Gecko) Chrome/96.0.4664.110 Safari/537.36",WebKit,Chrome,96.0.4664.110,Windows,10.0,ac0f2dffeffaa78d35a552e03d03f0a8
20,3,"""",test_procedure,fixation,html-keyboard-response,109,226742,0.0-11.0-0.0-0.23,3PKVGQTFJQLSZOM7OKJDU84QFXXYRA,A147F5PJTHOB8A,3VSOLARPKKAO25QQVKV31D473VZ93I,PLSV4,PLSV4,3VSOLARPKKAO25QQVKV31D473VZ93I,3VSOLARPKKAO25QQVKV31D473VZ93I,338054,338054,3,0.06,"""",null,null,"<div class = fixationbox><div class = fixation>+</div></div>","""","""","""","""","""","""","""","""","2021-12-31 03:55:18",74.72.142.129,"Mozilla/5.0 (Windows NT 10.0; Win64; x64) AppleWebKit/537.36 (KHTML, like Gecko) Chrome/96.0.4664.110 Safari/537.36",WebKit,Chrome,96.0.4664.110,Windows,10.0,ac0f2dffeffaa78d35a552e03d03f0a8
20,3,"""",test_procedure,stim_test,canvas-button-response,110,229228,0.0-11.0-0.0-1.23,3PKVGQTFJQLSZOM7OKJDU84QFXXYRA,A147F5PJTHOB8A,3VSOLARPKKAO25QQVKV31D473VZ93I,PLSV4,PLSV4,3VSOLARPKKAO25QQVKV31D473VZ93I,3VSOLARPKKAO25QQVKV31D473VZ93I,338054,338054,3,0.06,"""",2448.600000023842,1,stim4,0,Counter-clockwise,false,"""",0.3,120,"""","""","2021-12-31 03:55:18",74.72.142.129,"Mozilla/5.0 (Windows NT 10.0; Win64; x64) AppleWebKit/537.36 (KHTML, like Gecko) Chrome/96.0.4664.110 Safari/537.36",WebKit,Chrome,96.0.4664.110,Windows,10.0,ac0f2dffeffaa78d35a552e03d03f0a8
20,3,"""",test_procedure,confidence_rating,html-slider-response,111,231229,0.0-11.0-0.0-2.23,3PKVGQTFJQLSZOM7OKJDU84QFXXYRA,A147F5PJTHOB8A,3VSOLARPKKAO25QQVKV31D473VZ93I,PLSV4,PLSV4,3VSOLARPKKAO25QQVKV31D473VZ93I,3VSOLARPKKAO25QQVKV31D473VZ93I,338054,338054,3,0.06,"""",1999.2999999821186,61,"<div id=""message-div""><p>How confident are you that your clockwise/counter-clockwise response just now was accurate? Please rate your confidence on the slider bar below.</p></div>","""","""","""",50,"""","""","""",61,"2021-12-31 03:55:18",74.72.142.129,"Mozilla/5.0 (Windows NT 10.0; Win64; x64) AppleWebKit/537.36 (KHTML, like Gecko) Chrome/96.0.4664.110 Safari/537.36",WebKit,Chrome,96.0.4664.110,Windows,10.0,ac0f2dffeffaa78d35a552e03d03f0a8
20,3,"""",test_procedure,rest_block,html-button-response,112,251861,0.0-11.0-0.0-3.23-0.23,3PKVGQTFJQLSZOM7OKJDU84QFXXYRA,A147F5PJTHOB8A,3VSOLARPKKAO25QQVKV31D473VZ93I,PLSV4,PLSV4,3VSOLARPKKAO25QQVKV31D473VZ93I,3VSOLARPKKAO25QQVKV31D473VZ93I,338054,338054,3,0.06,"""",20627.30000001192,0,"[""<p>You responded correctly on 45.83% of the trials in the previous section.</p><p>Time to take a break!</p><p>Once you're ready, press the \"Continue\" button to continue.</p>""]","""","""","""","""","""","""","""","""","2021-12-31 03:55:18",74.72.142.129,"Mozilla/5.0 (Windows NT 10.0; Win64; x64) AppleWebKit/537.36 (KHTML, like Gecko) Chrome/96.0.4664.110 Safari/537.36",WebKit,Chrome,96.0.4664.110,Windows,10.0,ac0f2dffeffaa78d35a552e03d03f0a8
20,3,"""",test_procedure,fixation,html-keyboard-response,113,252362,0.0-11.0-0.1-0.24,3PKVGQTFJQLSZOM7OKJDU84QFXXYRA,A147F5PJTHOB8A,3VSOLARPKKAO25QQVKV31D473VZ93I,PLSV4,PLSV4,3VSOLARPKKAO25QQVKV31D473VZ93I,3VSOLARPKKAO25QQVKV31D473VZ93I,338054,338054,3,0.06,"""",null,null,"<div class = fixationbox><div class = fixation>+</div></div>","""","""","""","""","""","""","""","""","2021-12-31 03:55:18",74.72.142.129,"Mozilla/5.0 (Windows NT 10.0; Win64; x64) AppleWebKit/537.36 (KHTML, like Gecko) Chrome/96.0.4664.110 Safari/537.36",WebKit,Chrome,96.0.4664.110,Windows,10.0,ac0f2dffeffaa78d35a552e03d03f0a8
20,3,"""",test_procedure,stim_test,canvas-button-response,114,254759,0.0-11.0-0.1-1.24,3PKVGQTFJQLSZOM7OKJDU84QFXXYRA,A147F5PJTHOB8A,3VSOLARPKKAO25QQVKV31D473VZ93I,PLSV4,PLSV4,3VSOLARPKKAO25QQVKV31D473VZ93I,3VSOLARPKKAO25QQVKV31D473VZ93I,338054,338054,3,0.06,"""",2350.9000000059605,1,stim3,1,Clockwise,true,"""",0.3,60,"""","""","2021-12-31 03:55:18",74.72.142.129,"Mozilla/5.0 (Windows NT 10.0; Win64; x64) AppleWebKit/537.36 (KHTML, like Gecko) Chrome/96.0.4664.110 Safari/537.36",WebKit,Chrome,96.0.4664.110,Windows,10.0,ac0f2dffeffaa78d35a552e03d03f0a8
20,3,"""",test_procedure,confidence_rating,html-slider-response,115,256698,0.0-11.0-0.1-2.24,3PKVGQTFJQLSZOM7OKJDU84QFXXYRA,A147F5PJTHOB8A,3VSOLARPKKAO25QQVKV31D473VZ93I,PLSV4,PLSV4,3VSOLARPKKAO25QQVKV31D473VZ93I,3VSOLARPKKAO25QQVKV31D473VZ93I,338054,338054,3,0.06,"""",1938.2000000178814,65,"<div id=""message-div""><p>How confident are you that your clockwise/counter-clockwise response just now was accurate? Please rate your confidence on the slider bar below.</p></div>","""","""","""",50,"""","""","""",65,"2021-12-31 03:55:18",74.72.142.129,"Mozilla/5.0 (Windows NT 10.0; Win64; x64) AppleWebKit/537.36 (KHTML, like Gecko) Chrome/96.0.4664.110 Safari/537.36",WebKit,Chrome,96.0.4664.110,Windows,10.0,ac0f2dffeffaa78d35a552e03d03f0a8
20,3,"""",test_procedure,fixation,html-keyboard-response,116,257200,0.0-11.0-0.1-0.25,3PKVGQTFJQLSZOM7OKJDU84QFXXYRA,A147F5PJTHOB8A,3VSOLARPKKAO25QQVKV31D473VZ93I,PLSV4,PLSV4,3VSOLARPKKAO25QQVKV31D473VZ93I,3VSOLARPKKAO25QQVKV31D473VZ93I,338054,338054,3,0.06,"""",null,null,"<div class = fixationbox><div class = fixation>+</div></div>","""","""","""","""","""","""","""","""","2021-12-31 03:55:18",74.72.142.129,"Mozilla/5.0 (Windows NT 10.0; Win64; x64) AppleWebKit/537.36 (KHTML, like Gecko) Chrome/96.0.4664.110 Safari/537.36",WebKit,Chrome,96.0.4664.110,Windows,10.0,ac0f2dffeffaa78d35a552e03d03f0a8
20,3,"""",test_procedure,stim_test,canvas-button-response,117,259048,0.0-11.0-0.1-1.25,3PKVGQTFJQLSZOM7OKJDU84QFXXYRA,A147F5PJTHOB8A,3VSOLARPKKAO25QQVKV31D473VZ93I,PLSV4,PLSV4,3VSOLARPKKAO25QQVKV31D473VZ93I,3VSOLARPKKAO25QQVKV31D473VZ93I,338054,338054,3,0.06,"""",1799.4000000059605,0,stim4,0,Counter-clockwise,true,"""",0.3,120,"""","""","2021-12-31 03:55:18",74.72.142.129,"Mozilla/5.0 (Windows NT 10.0; Win64; x64) AppleWebKit/537.36 (KHTML, like Gecko) Chrome/96.0.4664.110 Safari/537.36",WebKit,Chrome,96.0.4664.110,Windows,10.0,ac0f2dffeffaa78d35a552e03d03f0a8
20,3,"""",test_procedure,confidence_rating,html-slider-response,118,262564,0.0-11.0-0.1-2.25,3PKVGQTFJQLSZOM7OKJDU84QFXXYRA,A147F5PJTHOB8A,3VSOLARPKKAO25QQVKV31D473VZ93I,PLSV4,PLSV4,3VSOLARPKKAO25QQVKV31D473VZ93I,3VSOLARPKKAO25QQVKV31D473VZ93I,338054,338054,3,0.06,"""",3513.0999999940395,8,"<div id=""message-div""><p>How confident are you that your clockwise/counter-clockwise response just now was accurate? Please rate your confidence on the slider bar below.</p></div>","""","""","""",50,"""","""","""",8,"2021-12-31 03:55:18",74.72.142.129,"Mozilla/5.0 (Windows NT 10.0; Win64; x64) AppleWebKit/537.36 (KHTML, like Gecko) Chrome/96.0.4664.110 Safari/537.36",WebKit,Chrome,96.0.4664.110,Windows,10.0,ac0f2dffeffaa78d35a552e03d03f0a8
20,3,"""",test_procedure,fixation,html-keyboard-response,119,263066,0.0-11.0-0.1-0.26,3PKVGQTFJQLSZOM7OKJDU84QFXXYRA,A147F5PJTHOB8A,3VSOLARPKKAO25QQVKV31D473VZ93I,PLSV4,PLSV4,3VSOLARPKKAO25QQVKV31D473VZ93I,3VSOLARPKKAO25QQVKV31D473VZ93I,338054,338054,3,0.06,"""",null,null,"<div class = fixationbox><div class = fixation>+</div></div>","""","""","""","""","""","""","""","""","2021-12-31 03:55:18",74.72.142.129,"Mozilla/5.0 (Windows NT 10.0; Win64; x64) AppleWebKit/537.36 (KHTML, like Gecko) Chrome/96.0.4664.110 Safari/537.36",WebKit,Chrome,96.0.4664.110,Windows,10.0,ac0f2dffeffaa78d35a552e03d03f0a8
20,3,"""",test_procedure,stim_test,canvas-button-response,120,264642,0.0-11.0-0.1-1.26,3PKVGQTFJQLSZOM7OKJDU84QFXXYRA,A147F5PJTHOB8A,3VSOLARPKKAO25QQVKV31D473VZ93I,PLSV4,PLSV4,3VSOLARPKKAO25QQVKV31D473VZ93I,3VSOLARPKKAO25QQVKV31D473VZ93I,338054,338054,3,0.06,"""",1538.5999999940395,0,stim2,0,Counter-clockwise,true,"""",0.01,120,"""","""","2021-12-31 03:55:18",74.72.142.129,"Mozilla/5.0 (Windows NT 10.0; Win64; x64) AppleWebKit/537.36 (KHTML, like Gecko) Chrome/96.0.4664.110 Safari/537.36",WebKit,Chrome,96.0.4664.110,Windows,10.0,ac0f2dffeffaa78d35a552e03d03f0a8
20,3,"""",test_procedure,confidence_rating,html-slider-response,121,266219,0.0-11.0-0.1-2.26,3PKVGQTFJQLSZOM7OKJDU84QFXXYRA,A147F5PJTHOB8A,3VSOLARPKKAO25QQVKV31D473VZ93I,PLSV4,PLSV4,3VSOLARPKKAO25QQVKV31D473VZ93I,3VSOLARPKKAO25QQVKV31D473VZ93I,338054,338054,3,0.06,"""",1573.7000000178814,4,"<div id=""message-div""><p>How confident are you that your clockwise/counter-clockwise response just now was accurate? Please rate your confidence on the slider bar below.</p></div>","""","""","""",50,"""","""","""",4,"2021-12-31 03:55:18",74.72.142.129,"Mozilla/5.0 (Windows NT 10.0; Win64; x64) AppleWebKit/537.36 (KHTML, like Gecko) Chrome/96.0.4664.110 Safari/537.36",WebKit,Chrome,96.0.4664.110,Windows,10.0,ac0f2dffeffaa78d35a552e03d03f0a8
20,3,"""",test_procedure,fixation,html-keyboard-response,122,266721,0.0-11.0-0.1-0.27,3PKVGQTFJQLSZOM7OKJDU84QFXXYRA,A147F5PJTHOB8A,3VSOLARPKKAO25QQVKV31D473VZ93I,PLSV4,PLSV4,3VSOLARPKKAO25QQVKV31D473VZ93I,3VSOLARPKKAO25QQVKV31D473VZ93I,338054,338054,3,0.06,"""",null,null,"<div class = fixationbox><div class = fixation>+</div></div>","""","""","""","""","""","""","""","""","2021-12-31 03:55:18",74.72.142.129,"Mozilla/5.0 (Windows NT 10.0; Win64; x64) AppleWebKit/537.36 (KHTML, like Gecko) Chrome/96.0.4664.110 Safari/537.36",WebKit,Chrome,96.0.4664.110,Windows,10.0,ac0f2dffeffaa78d35a552e03d03f0a8
20,3,"""",test_procedure,stim_test,canvas-button-response,123,268047,0.0-11.0-0.1-1.27,3PKVGQTFJQLSZOM7OKJDU84QFXXYRA,A147F5PJTHOB8A,3VSOLARPKKAO25QQVKV31D473VZ93I,PLSV4,PLSV4,3VSOLARPKKAO25QQVKV31D473VZ93I,3VSOLARPKKAO25QQVKV31D473VZ93I,338054,338054,3,0.06,"""",1289.0999999940395,1,stim2,0,Counter-clockwise,false,"""",0.01,120,"""","""","2021-12-31 03:55:18",74.72.142.129,"Mozilla/5.0 (Windows NT 10.0; Win64; x64) AppleWebKit/537.36 (KHTML, like Gecko) Chrome/96.0.4664.110 Safari/537.36",WebKit,Chrome,96.0.4664.110,Windows,10.0,ac0f2dffeffaa78d35a552e03d03f0a8
20,3,"""",test_procedure,confidence_rating,html-slider-response,124,269836,0.0-11.0-0.1-2.27,3PKVGQTFJQLSZOM7OKJDU84QFXXYRA,A147F5PJTHOB8A,3VSOLARPKKAO25QQVKV31D473VZ93I,PLSV4,PLSV4,3VSOLARPKKAO25QQVKV31D473VZ93I,3VSOLARPKKAO25QQVKV31D473VZ93I,338054,338054,3,0.06,"""",1787.8999999761581,63,"<div id=""message-div""><p>How confident are you that your clockwise/counter-clockwise response just now was accurate? Please rate your confidence on the slider bar below.</p></div>","""","""","""",50,"""","""","""",63,"2021-12-31 03:55:18",74.72.142.129,"Mozilla/5.0 (Windows NT 10.0; Win64; x64) AppleWebKit/537.36 (KHTML, like Gecko) Chrome/96.0.4664.110 Safari/537.36",WebKit,Chrome,96.0.4664.110,Windows,10.0,ac0f2dffeffaa78d35a552e03d03f0a8
20,3,"""",test_procedure,fixation,html-keyboard-response,125,270338,0.0-11.0-0.1-0.28,3PKVGQTFJQLSZOM7OKJDU84QFXXYRA,A147F5PJTHOB8A,3VSOLARPKKAO25QQVKV31D473VZ93I,PLSV4,PLSV4,3VSOLARPKKAO25QQVKV31D473VZ93I,3VSOLARPKKAO25QQVKV31D473VZ93I,338054,338054,3,0.06,"""",null,null,"<div class = fixationbox><div class = fixation>+</div></div>","""","""","""","""","""","""","""","""","2021-12-31 03:55:18",74.72.142.129,"Mozilla/5.0 (Windows NT 10.0; Win64; x64) AppleWebKit/537.36 (KHTML, like Gecko) Chrome/96.0.4664.110 Safari/537.36",WebKit,Chrome,96.0.4664.110,Windows,10.0,ac0f2dffeffaa78d35a552e03d03f0a8
20,3,"""",test_procedure,stim_test,canvas-button-response,126,271623,0.0-11.0-0.1-1.28,3PKVGQTFJQLSZOM7OKJDU84QFXXYRA,A147F5PJTHOB8A,3VSOLARPKKAO25QQVKV31D473VZ93I,PLSV4,PLSV4,3VSOLARPKKAO25QQVKV31D473VZ93I,3VSOLARPKKAO25QQVKV31D473VZ93I,338054,338054,3,0.06,"""",1243.7000000178814,1,stim1,1,Clockwise,true,"""",0.01,60,"""","""","2021-12-31 03:55:18",74.72.142.129,"Mozilla/5.0 (Windows NT 10.0; Win64; x64) AppleWebKit/537.36 (KHTML, like Gecko) Chrome/96.0.4664.110 Safari/537.36",WebKit,Chrome,96.0.4664.110,Windows,10.0,ac0f2dffeffaa78d35a552e03d03f0a8
20,3,"""",test_procedure,confidence_rating,html-slider-response,127,274001,0.0-11.0-0.1-2.28,3PKVGQTFJQLSZOM7OKJDU84QFXXYRA,A147F5PJTHOB8A,3VSOLARPKKAO25QQVKV31D473VZ93I,PLSV4,PLSV4,3VSOLARPKKAO25QQVKV31D473VZ93I,3VSOLARPKKAO25QQVKV31D473VZ93I,338054,338054,3,0.06,"""",2376.899999976158,42,"<div id=""message-div""><p>How confident are you that your clockwise/counter-clockwise response just now was accurate? Please rate your confidence on the slider bar below.</p></div>","""","""","""",50,"""","""","""",42,"2021-12-31 03:55:18",74.72.142.129,"Mozilla/5.0 (Windows NT 10.0; Win64; x64) AppleWebKit/537.36 (KHTML, like Gecko) Chrome/96.0.4664.110 Safari/537.36",WebKit,Chrome,96.0.4664.110,Windows,10.0,ac0f2dffeffaa78d35a552e03d03f0a8
20,3,"""",test_procedure,fixation,html-keyboard-response,128,274503,0.0-11.0-0.1-0.29,3PKVGQTFJQLSZOM7OKJDU84QFXXYRA,A147F5PJTHOB8A,3VSOLARPKKAO25QQVKV31D473VZ93I,PLSV4,PLSV4,3VSOLARPKKAO25QQVKV31D473VZ93I,3VSOLARPKKAO25QQVKV31D473VZ93I,338054,338054,3,0.06,"""",null,null,"<div class = fixationbox><div class = fixation>+</div></div>","""","""","""","""","""","""","""","""","2021-12-31 03:55:18",74.72.142.129,"Mozilla/5.0 (Windows NT 10.0; Win64; x64) AppleWebKit/537.36 (KHTML, like Gecko) Chrome/96.0.4664.110 Safari/537.36",WebKit,Chrome,96.0.4664.110,Windows,10.0,ac0f2dffeffaa78d35a552e03d03f0a8
20,3,"""",test_procedure,stim_test,canvas-button-response,129,276179,0.0-11.0-0.1-1.29,3PKVGQTFJQLSZOM7OKJDU84QFXXYRA,A147F5PJTHOB8A,3VSOLARPKKAO25QQVKV31D473VZ93I,PLSV4,PLSV4,3VSOLARPKKAO25QQVKV31D473VZ93I,3VSOLARPKKAO25QQVKV31D473VZ93I,338054,338054,3,0.06,"""",1638.4000000059605,0,catchStim8,0,Counter-clockwise,true,"""",0.3,120,0.001,"""","2021-12-31 03:55:18",74.72.142.129,"Mozilla/5.0 (Windows NT 10.0; Win64; x64) AppleWebKit/537.36 (KHTML, like Gecko) Chrome/96.0.4664.110 Safari/537.36",WebKit,Chrome,96.0.4664.110,Windows,10.0,ac0f2dffeffaa78d35a552e03d03f0a8
20,3,"""",test_procedure,confidence_rating,html-slider-response,130,278414,0.0-11.0-0.1-2.29,3PKVGQTFJQLSZOM7OKJDU84QFXXYRA,A147F5PJTHOB8A,3VSOLARPKKAO25QQVKV31D473VZ93I,PLSV4,PLSV4,3VSOLARPKKAO25QQVKV31D473VZ93I,3VSOLARPKKAO25QQVKV31D473VZ93I,338054,338054,3,0.06,"""",2231.0999999940395,59,"<div id=""message-div""><p>How confident are you that your clockwise/counter-clockwise response just now was accurate? Please rate your confidence on the slider bar below.</p></div>","""","""","""",50,"""","""","""",59,"2021-12-31 03:55:18",74.72.142.129,"Mozilla/5.0 (Windows NT 10.0; Win64; x64) AppleWebKit/537.36 (KHTML, like Gecko) Chrome/96.0.4664.110 Safari/537.36",WebKit,Chrome,96.0.4664.110,Windows,10.0,ac0f2dffeffaa78d35a552e03d03f0a8
20,3,"""",test_procedure,fixation,html-keyboard-response,131,278915,0.0-11.0-0.1-0.30,3PKVGQTFJQLSZOM7OKJDU84QFXXYRA,A147F5PJTHOB8A,3VSOLARPKKAO25QQVKV31D473VZ93I,PLSV4,PLSV4,3VSOLARPKKAO25QQVKV31D473VZ93I,3VSOLARPKKAO25QQVKV31D473VZ93I,338054,338054,3,0.06,"""",null,null,"<div class = fixationbox><div class = fixation>+</div></div>","""","""","""","""","""","""","""","""","2021-12-31 03:55:18",74.72.142.129,"Mozilla/5.0 (Windows NT 10.0; Win64; x64) AppleWebKit/537.36 (KHTML, like Gecko) Chrome/96.0.4664.110 Safari/537.36",WebKit,Chrome,96.0.4664.110,Windows,10.0,ac0f2dffeffaa78d35a552e03d03f0a8
20,3,"""",test_procedure,stim_test,canvas-button-response,132,280387,0.0-11.0-0.1-1.30,3PKVGQTFJQLSZOM7OKJDU84QFXXYRA,A147F5PJTHOB8A,3VSOLARPKKAO25QQVKV31D473VZ93I,PLSV4,PLSV4,3VSOLARPKKAO25QQVKV31D473VZ93I,3VSOLARPKKAO25QQVKV31D473VZ93I,338054,338054,3,0.06,"""",1434.4000000059605,0,stim4,0,Counter-clockwise,true,"""",0.3,120,"""","""","2021-12-31 03:55:18",74.72.142.129,"Mozilla/5.0 (Windows NT 10.0; Win64; x64) AppleWebKit/537.36 (KHTML, like Gecko) Chrome/96.0.4664.110 Safari/537.36",WebKit,Chrome,96.0.4664.110,Windows,10.0,ac0f2dffeffaa78d35a552e03d03f0a8
20,3,"""",test_procedure,confidence_rating,html-slider-response,133,281884,0.0-11.0-0.1-2.30,3PKVGQTFJQLSZOM7OKJDU84QFXXYRA,A147F5PJTHOB8A,3VSOLARPKKAO25QQVKV31D473VZ93I,PLSV4,PLSV4,3VSOLARPKKAO25QQVKV31D473VZ93I,3VSOLARPKKAO25QQVKV31D473VZ93I,338054,338054,3,0.06,"""",1495.5999999940395,40,"<div id=""message-div""><p>How confident are you that your clockwise/counter-clockwise response just now was accurate? Please rate your confidence on the slider bar below.</p></div>","""","""","""",50,"""","""","""",40,"2021-12-31 03:55:18",74.72.142.129,"Mozilla/5.0 (Windows NT 10.0; Win64; x64) AppleWebKit/537.36 (KHTML, like Gecko) Chrome/96.0.4664.110 Safari/537.36",WebKit,Chrome,96.0.4664.110,Windows,10.0,ac0f2dffeffaa78d35a552e03d03f0a8
20,3,"""",test_procedure,fixation,html-keyboard-response,134,282388,0.0-11.0-0.1-0.31,3PKVGQTFJQLSZOM7OKJDU84QFXXYRA,A147F5PJTHOB8A,3VSOLARPKKAO25QQVKV31D473VZ93I,PLSV4,PLSV4,3VSOLARPKKAO25QQVKV31D473VZ93I,3VSOLARPKKAO25QQVKV31D473VZ93I,338054,338054,3,0.06,"""",null,null,"<div class = fixationbox><div class = fixation>+</div></div>","""","""","""","""","""","""","""","""","2021-12-31 03:55:18",74.72.142.129,"Mozilla/5.0 (Windows NT 10.0; Win64; x64) AppleWebKit/537.36 (KHTML, like Gecko) Chrome/96.0.4664.110 Safari/537.36",WebKit,Chrome,96.0.4664.110,Windows,10.0,ac0f2dffeffaa78d35a552e03d03f0a8
20,3,"""",test_procedure,stim_test,canvas-button-response,135,284395,0.0-11.0-0.1-1.31,3PKVGQTFJQLSZOM7OKJDU84QFXXYRA,A147F5PJTHOB8A,3VSOLARPKKAO25QQVKV31D473VZ93I,PLSV4,PLSV4,3VSOLARPKKAO25QQVKV31D473VZ93I,3VSOLARPKKAO25QQVKV31D473VZ93I,338054,338054,3,0.06,"""",1968.3999999761581,1,stim3,1,Clockwise,true,"""",0.3,60,"""","""","2021-12-31 03:55:18",74.72.142.129,"Mozilla/5.0 (Windows NT 10.0; Win64; x64) AppleWebKit/537.36 (KHTML, like Gecko) Chrome/96.0.4664.110 Safari/537.36",WebKit,Chrome,96.0.4664.110,Windows,10.0,ac0f2dffeffaa78d35a552e03d03f0a8
20,3,"""",test_procedure,confidence_rating,html-slider-response,136,286726,0.0-11.0-0.1-2.31,3PKVGQTFJQLSZOM7OKJDU84QFXXYRA,A147F5PJTHOB8A,3VSOLARPKKAO25QQVKV31D473VZ93I,PLSV4,PLSV4,3VSOLARPKKAO25QQVKV31D473VZ93I,3VSOLARPKKAO25QQVKV31D473VZ93I,338054,338054,3,0.06,"""",2329.4000000059605,32,"<div id=""message-div""><p>How confident are you that your clockwise/counter-clockwise response just now was accurate? Please rate your confidence on the slider bar below.</p></div>","""","""","""",50,"""","""","""",32,"2021-12-31 03:55:18",74.72.142.129,"Mozilla/5.0 (Windows NT 10.0; Win64; x64) AppleWebKit/537.36 (KHTML, like Gecko) Chrome/96.0.4664.110 Safari/537.36",WebKit,Chrome,96.0.4664.110,Windows,10.0,ac0f2dffeffaa78d35a552e03d03f0a8
20,3,"""",test_procedure,fixation,html-keyboard-response,137,287228,0.0-11.0-0.1-0.32,3PKVGQTFJQLSZOM7OKJDU84QFXXYRA,A147F5PJTHOB8A,3VSOLARPKKAO25QQVKV31D473VZ93I,PLSV4,PLSV4,3VSOLARPKKAO25QQVKV31D473VZ93I,3VSOLARPKKAO25QQVKV31D473VZ93I,338054,338054,3,0.06,"""",null,null,"<div class = fixationbox><div class = fixation>+</div></div>","""","""","""","""","""","""","""","""","2021-12-31 03:55:18",74.72.142.129,"Mozilla/5.0 (Windows NT 10.0; Win64; x64) AppleWebKit/537.36 (KHTML, like Gecko) Chrome/96.0.4664.110 Safari/537.36",WebKit,Chrome,96.0.4664.110,Windows,10.0,ac0f2dffeffaa78d35a552e03d03f0a8
20,3,"""",test_procedure,stim_test,canvas-button-response,138,290205,0.0-11.0-0.1-1.32,3PKVGQTFJQLSZOM7OKJDU84QFXXYRA,A147F5PJTHOB8A,3VSOLARPKKAO25QQVKV31D473VZ93I,PLSV4,PLSV4,3VSOLARPKKAO25QQVKV31D473VZ93I,3VSOLARPKKAO25QQVKV31D473VZ93I,338054,338054,3,0.06,"""",2940.2000000178814,1,stim2,0,Counter-clockwise,false,"""",0.01,120,"""","""","2021-12-31 03:55:18",74.72.142.129,"Mozilla/5.0 (Windows NT 10.0; Win64; x64) AppleWebKit/537.36 (KHTML, like Gecko) Chrome/96.0.4664.110 Safari/537.36",WebKit,Chrome,96.0.4664.110,Windows,10.0,ac0f2dffeffaa78d35a552e03d03f0a8
20,3,"""",test_procedure,confidence_rating,html-slider-response,139,291898,0.0-11.0-0.1-2.32,3PKVGQTFJQLSZOM7OKJDU84QFXXYRA,A147F5PJTHOB8A,3VSOLARPKKAO25QQVKV31D473VZ93I,PLSV4,PLSV4,3VSOLARPKKAO25QQVKV31D473VZ93I,3VSOLARPKKAO25QQVKV31D473VZ93I,338054,338054,3,0.06,"""",1688.199999988079,77,"<div id=""message-div""><p>How confident are you that your clockwise/counter-clockwise response just now was accurate? Please rate your confidence on the slider bar below.</p></div>","""","""","""",50,"""","""","""",77,"2021-12-31 03:55:18",74.72.142.129,"Mozilla/5.0 (Windows NT 10.0; Win64; x64) AppleWebKit/537.36 (KHTML, like Gecko) Chrome/96.0.4664.110 Safari/537.36",WebKit,Chrome,96.0.4664.110,Windows,10.0,ac0f2dffeffaa78d35a552e03d03f0a8
20,3,"""",test_procedure,fixation,html-keyboard-response,140,292400,0.0-11.0-0.1-0.33,3PKVGQTFJQLSZOM7OKJDU84QFXXYRA,A147F5PJTHOB8A,3VSOLARPKKAO25QQVKV31D473VZ93I,PLSV4,PLSV4,3VSOLARPKKAO25QQVKV31D473VZ93I,3VSOLARPKKAO25QQVKV31D473VZ93I,338054,338054,3,0.06,"""",null,null,"<div class = fixationbox><div class = fixation>+</div></div>","""","""","""","""","""","""","""","""","2021-12-31 03:55:18",74.72.142.129,"Mozilla/5.0 (Windows NT 10.0; Win64; x64) AppleWebKit/537.36 (KHTML, like Gecko) Chrome/96.0.4664.110 Safari/537.36",WebKit,Chrome,96.0.4664.110,Windows,10.0,ac0f2dffeffaa78d35a552e03d03f0a8
20,3,"""",test_procedure,stim_test,canvas-button-response,141,293807,0.0-11.0-0.1-1.33,3PKVGQTFJQLSZOM7OKJDU84QFXXYRA,A147F5PJTHOB8A,3VSOLARPKKAO25QQVKV31D473VZ93I,PLSV4,PLSV4,3VSOLARPKKAO25QQVKV31D473VZ93I,3VSOLARPKKAO25QQVKV31D473VZ93I,338054,338054,3,0.06,"""",1369.199999988079,0,catchStim2,0,Counter-clockwise,true,"""",0.01,120,0.6,"""","2021-12-31 03:55:18",74.72.142.129,"Mozilla/5.0 (Windows NT 10.0; Win64; x64) AppleWebKit/537.36 (KHTML, like Gecko) Chrome/96.0.4664.110 Safari/537.36",WebKit,Chrome,96.0.4664.110,Windows,10.0,ac0f2dffeffaa78d35a552e03d03f0a8
20,3,"""",test_procedure,confidence_rating,html-slider-response,142,295670,0.0-11.0-0.1-2.33,3PKVGQTFJQLSZOM7OKJDU84QFXXYRA,A147F5PJTHOB8A,3VSOLARPKKAO25QQVKV31D473VZ93I,PLSV4,PLSV4,3VSOLARPKKAO25QQVKV31D473VZ93I,3VSOLARPKKAO25QQVKV31D473VZ93I,338054,338054,3,0.06,"""",1862.5,100,"<div id=""message-div""><p>How confident are you that your clockwise/counter-clockwise response just now was accurate? Please rate your confidence on the slider bar below.</p></div>","""","""","""",50,"""","""","""",100,"2021-12-31 03:55:18",74.72.142.129,"Mozilla/5.0 (Windows NT 10.0; Win64; x64) AppleWebKit/537.36 (KHTML, like Gecko) Chrome/96.0.4664.110 Safari/537.36",WebKit,Chrome,96.0.4664.110,Windows,10.0,ac0f2dffeffaa78d35a552e03d03f0a8
20,3,"""",test_procedure,fixation,html-keyboard-response,143,296171,0.0-11.0-0.1-0.34,3PKVGQTFJQLSZOM7OKJDU84QFXXYRA,A147F5PJTHOB8A,3VSOLARPKKAO25QQVKV31D473VZ93I,PLSV4,PLSV4,3VSOLARPKKAO25QQVKV31D473VZ93I,3VSOLARPKKAO25QQVKV31D473VZ93I,338054,338054,3,0.06,"""",null,null,"<div class = fixationbox><div class = fixation>+</div></div>","""","""","""","""","""","""","""","""","2021-12-31 03:55:18",74.72.142.129,"Mozilla/5.0 (Windows NT 10.0; Win64; x64) AppleWebKit/537.36 (KHTML, like Gecko) Chrome/96.0.4664.110 Safari/537.36",WebKit,Chrome,96.0.4664.110,Windows,10.0,ac0f2dffeffaa78d35a552e03d03f0a8
20,3,"""",test_procedure,stim_test,canvas-button-response,144,297894,0.0-11.0-0.1-1.34,3PKVGQTFJQLSZOM7OKJDU84QFXXYRA,A147F5PJTHOB8A,3VSOLARPKKAO25QQVKV31D473VZ93I,PLSV4,PLSV4,3VSOLARPKKAO25QQVKV31D473VZ93I,3VSOLARPKKAO25QQVKV31D473VZ93I,338054,338054,3,0.06,"""",1678.5999999940395,0,stim4,0,Counter-clockwise,true,"""",0.3,120,"""","""","2021-12-31 03:55:18",74.72.142.129,"Mozilla/5.0 (Windows NT 10.0; Win64; x64) AppleWebKit/537.36 (KHTML, like Gecko) Chrome/96.0.4664.110 Safari/537.36",WebKit,Chrome,96.0.4664.110,Windows,10.0,ac0f2dffeffaa78d35a552e03d03f0a8
20,3,"""",test_procedure,confidence_rating,html-slider-response,145,299664,0.0-11.0-0.1-2.34,3PKVGQTFJQLSZOM7OKJDU84QFXXYRA,A147F5PJTHOB8A,3VSOLARPKKAO25QQVKV31D473VZ93I,PLSV4,PLSV4,3VSOLARPKKAO25QQVKV31D473VZ93I,3VSOLARPKKAO25QQVKV31D473VZ93I,338054,338054,3,0.06,"""",1768.800000011921,12,"<div id=""message-div""><p>How confident are you that your clockwise/counter-clockwise response just now was accurate? Please rate your confidence on the slider bar below.</p></div>","""","""","""",50,"""","""","""",12,"2021-12-31 03:55:18",74.72.142.129,"Mozilla/5.0 (Windows NT 10.0; Win64; x64) AppleWebKit/537.36 (KHTML, like Gecko) Chrome/96.0.4664.110 Safari/537.36",WebKit,Chrome,96.0.4664.110,Windows,10.0,ac0f2dffeffaa78d35a552e03d03f0a8
20,3,"""",test_procedure,fixation,html-keyboard-response,146,300165,0.0-11.0-0.1-0.35,3PKVGQTFJQLSZOM7OKJDU84QFXXYRA,A147F5PJTHOB8A,3VSOLARPKKAO25QQVKV31D473VZ93I,PLSV4,PLSV4,3VSOLARPKKAO25QQVKV31D473VZ93I,3VSOLARPKKAO25QQVKV31D473VZ93I,338054,338054,3,0.06,"""",null,null,"<div class = fixationbox><div class = fixation>+</div></div>","""","""","""","""","""","""","""","""","2021-12-31 03:55:18",74.72.142.129,"Mozilla/5.0 (Windows NT 10.0; Win64; x64) AppleWebKit/537.36 (KHTML, like Gecko) Chrome/96.0.4664.110 Safari/537.36",WebKit,Chrome,96.0.4664.110,Windows,10.0,ac0f2dffeffaa78d35a552e03d03f0a8
20,3,"""",test_procedure,stim_test,canvas-button-response,147,301810,0.0-11.0-0.1-1.35,3PKVGQTFJQLSZOM7OKJDU84QFXXYRA,A147F5PJTHOB8A,3VSOLARPKKAO25QQVKV31D473VZ93I,PLSV4,PLSV4,3VSOLARPKKAO25QQVKV31D473VZ93I,3VSOLARPKKAO25QQVKV31D473VZ93I,338054,338054,3,0.06,"""",1607.9000000059605,1,stim1,1,Clockwise,true,"""",0.01,60,"""","""","2021-12-31 03:55:18",74.72.142.129,"Mozilla/5.0 (Windows NT 10.0; Win64; x64) AppleWebKit/537.36 (KHTML, like Gecko) Chrome/96.0.4664.110 Safari/537.36",WebKit,Chrome,96.0.4664.110,Windows,10.0,ac0f2dffeffaa78d35a552e03d03f0a8
20,3,"""",test_procedure,confidence_rating,html-slider-response,148,303484,0.0-11.0-0.1-2.35,3PKVGQTFJQLSZOM7OKJDU84QFXXYRA,A147F5PJTHOB8A,3VSOLARPKKAO25QQVKV31D473VZ93I,PLSV4,PLSV4,3VSOLARPKKAO25QQVKV31D473VZ93I,3VSOLARPKKAO25QQVKV31D473VZ93I,338054,338054,3,0.06,"""",1670.5,52,"<div id=""message-div""><p>How confident are you that your clockwise/counter-clockwise response just now was accurate? Please rate your confidence on the slider bar below.</p></div>","""","""","""",50,"""","""","""",52,"2021-12-31 03:55:18",74.72.142.129,"Mozilla/5.0 (Windows NT 10.0; Win64; x64) AppleWebKit/537.36 (KHTML, like Gecko) Chrome/96.0.4664.110 Safari/537.36",WebKit,Chrome,96.0.4664.110,Windows,10.0,ac0f2dffeffaa78d35a552e03d03f0a8
20,3,"""",test_procedure,fixation,html-keyboard-response,149,303986,0.0-11.0-0.1-0.36,3PKVGQTFJQLSZOM7OKJDU84QFXXYRA,A147F5PJTHOB8A,3VSOLARPKKAO25QQVKV31D473VZ93I,PLSV4,PLSV4,3VSOLARPKKAO25QQVKV31D473VZ93I,3VSOLARPKKAO25QQVKV31D473VZ93I,338054,338054,3,0.06,"""",null,null,"<div class = fixationbox><div class = fixation>+</div></div>","""","""","""","""","""","""","""","""","2021-12-31 03:55:18",74.72.142.129,"Mozilla/5.0 (Windows NT 10.0; Win64; x64) AppleWebKit/537.36 (KHTML, like Gecko) Chrome/96.0.4664.110 Safari/537.36",WebKit,Chrome,96.0.4664.110,Windows,10.0,ac0f2dffeffaa78d35a552e03d03f0a8
20,3,"""",test_procedure,stim_test,canvas-button-response,150,306840,0.0-11.0-0.1-1.36,3PKVGQTFJQLSZOM7OKJDU84QFXXYRA,A147F5PJTHOB8A,3VSOLARPKKAO25QQVKV31D473VZ93I,PLSV4,PLSV4,3VSOLARPKKAO25QQVKV31D473VZ93I,3VSOLARPKKAO25QQVKV31D473VZ93I,338054,338054,3,0.06,"""",2817.0999999940395,1,stim1,1,Clockwise,true,"""",0.01,60,"""","""","2021-12-31 03:55:18",74.72.142.129,"Mozilla/5.0 (Windows NT 10.0; Win64; x64) AppleWebKit/537.36 (KHTML, like Gecko) Chrome/96.0.4664.110 Safari/537.36",WebKit,Chrome,96.0.4664.110,Windows,10.0,ac0f2dffeffaa78d35a552e03d03f0a8
20,3,"""",test_procedure,confidence_rating,html-slider-response,151,308528,0.0-11.0-0.1-2.36,3PKVGQTFJQLSZOM7OKJDU84QFXXYRA,A147F5PJTHOB8A,3VSOLARPKKAO25QQVKV31D473VZ93I,PLSV4,PLSV4,3VSOLARPKKAO25QQVKV31D473VZ93I,3VSOLARPKKAO25QQVKV31D473VZ93I,338054,338054,3,0.06,"""",1687.5999999940395,3,"<div id=""message-div""><p>How confident are you that your clockwise/counter-clockwise response just now was accurate? Please rate your confidence on the slider bar below.</p></div>","""","""","""",50,"""","""","""",3,"2021-12-31 03:55:18",74.72.142.129,"Mozilla/5.0 (Windows NT 10.0; Win64; x64) AppleWebKit/537.36 (KHTML, like Gecko) Chrome/96.0.4664.110 Safari/537.36",WebKit,Chrome,96.0.4664.110,Windows,10.0,ac0f2dffeffaa78d35a552e03d03f0a8
20,3,"""",test_procedure,fixation,html-keyboard-response,152,309033,0.0-11.0-0.1-0.37,3PKVGQTFJQLSZOM7OKJDU84QFXXYRA,A147F5PJTHOB8A,3VSOLARPKKAO25QQVKV31D473VZ93I,PLSV4,PLSV4,3VSOLARPKKAO25QQVKV31D473VZ93I,3VSOLARPKKAO25QQVKV31D473VZ93I,338054,338054,3,0.06,"""",null,null,"<div class = fixationbox><div class = fixation>+</div></div>","""","""","""","""","""","""","""","""","2021-12-31 03:55:18",74.72.142.129,"Mozilla/5.0 (Windows NT 10.0; Win64; x64) AppleWebKit/537.36 (KHTML, like Gecko) Chrome/96.0.4664.110 Safari/537.36",WebKit,Chrome,96.0.4664.110,Windows,10.0,ac0f2dffeffaa78d35a552e03d03f0a8
20,3,"""",test_procedure,stim_test,canvas-button-response,153,310891,0.0-11.0-0.1-1.37,3PKVGQTFJQLSZOM7OKJDU84QFXXYRA,A147F5PJTHOB8A,3VSOLARPKKAO25QQVKV31D473VZ93I,PLSV4,PLSV4,3VSOLARPKKAO25QQVKV31D473VZ93I,3VSOLARPKKAO25QQVKV31D473VZ93I,338054,338054,3,0.06,"""",1818.7999999821186,1,stim3,1,Clockwise,true,"""",0.3,60,"""","""","2021-12-31 03:55:18",74.72.142.129,"Mozilla/5.0 (Windows NT 10.0; Win64; x64) AppleWebKit/537.36 (KHTML, like Gecko) Chrome/96.0.4664.110 Safari/537.36",WebKit,Chrome,96.0.4664.110,Windows,10.0,ac0f2dffeffaa78d35a552e03d03f0a8
20,3,"""",test_procedure,confidence_rating,html-slider-response,154,313542,0.0-11.0-0.1-2.37,3PKVGQTFJQLSZOM7OKJDU84QFXXYRA,A147F5PJTHOB8A,3VSOLARPKKAO25QQVKV31D473VZ93I,PLSV4,PLSV4,3VSOLARPKKAO25QQVKV31D473VZ93I,3VSOLARPKKAO25QQVKV31D473VZ93I,338054,338054,3,0.06,"""",2650.2000000178814,48,"<div id=""message-div""><p>How confident are you that your clockwise/counter-clockwise response just now was accurate? Please rate your confidence on the slider bar below.</p></div>","""","""","""",50,"""","""","""",48,"2021-12-31 03:55:18",74.72.142.129,"Mozilla/5.0 (Windows NT 10.0; Win64; x64) AppleWebKit/537.36 (KHTML, like Gecko) Chrome/96.0.4664.110 Safari/537.36",WebKit,Chrome,96.0.4664.110,Windows,10.0,ac0f2dffeffaa78d35a552e03d03f0a8
20,3,"""",test_procedure,fixation,html-keyboard-response,155,314044,0.0-11.0-0.1-0.38,3PKVGQTFJQLSZOM7OKJDU84QFXXYRA,A147F5PJTHOB8A,3VSOLARPKKAO25QQVKV31D473VZ93I,PLSV4,PLSV4,3VSOLARPKKAO25QQVKV31D473VZ93I,3VSOLARPKKAO25QQVKV31D473VZ93I,338054,338054,3,0.06,"""",null,null,"<div class = fixationbox><div class = fixation>+</div></div>","""","""","""","""","""","""","""","""","2021-12-31 03:55:18",74.72.142.129,"Mozilla/5.0 (Windows NT 10.0; Win64; x64) AppleWebKit/537.36 (KHTML, like Gecko) Chrome/96.0.4664.110 Safari/537.36",WebKit,Chrome,96.0.4664.110,Windows,10.0,ac0f2dffeffaa78d35a552e03d03f0a8
20,3,"""",test_procedure,stim_test,canvas-button-response,156,315280,0.0-11.0-0.1-1.38,3PKVGQTFJQLSZOM7OKJDU84QFXXYRA,A147F5PJTHOB8A,3VSOLARPKKAO25QQVKV31D473VZ93I,PLSV4,PLSV4,3VSOLARPKKAO25QQVKV31D473VZ93I,3VSOLARPKKAO25QQVKV31D473VZ93I,338054,338054,3,0.06,"""",1197.9000000059605,0,catchStim6,0,Counter-clockwise,true,"""",0.3,120,0.6,"""","2021-12-31 03:55:18",74.72.142.129,"Mozilla/5.0 (Windows NT 10.0; Win64; x64) AppleWebKit/537.36 (KHTML, like Gecko) Chrome/96.0.4664.110 Safari/537.36",WebKit,Chrome,96.0.4664.110,Windows,10.0,ac0f2dffeffaa78d35a552e03d03f0a8
