run_id,condition,success,exp_stage,trial_id,trial_type,trial_index,time_elapsed,internal_node_id,hitId,workerId,assignmentId,a,tp_a,b,tp_b,c,tp_c,conditionmyown,cen_signal_contrast_stim,view_history,rt,response,stimulus,correct_response,correct_response_in_clockwise_or_counterclockwise,correct,slider_start,ctx_signal_contrast,cen_angle_in_degree,cen_signal_contrast_catchStim,confidence,recorded_at,ip,user_agent,device,browser,browser_version,platform,platform_version,source_code_version
32,3,true,pre-exp,fullscreen_starts,fullscreen,0,16764,0.0-0.0,3SD15I2WEBVYX2RZ7BNPTJHHA9P63F,A2FWZR12905V6J,3PJUZCGDJFHA32WW71QZSUCIJHR98A,DZJP4,DZJP4,3PJUZCGDJFHA32WW71QZSUCIJHR98A,3PJUZCGDJFHA32WW71QZSUCIJHR98A,338054,338054,3,0.06,"""","""","""","""","""","""","""","""","""","""","""","""","2021-12-31 05:22:17",75.11.200.54,"Mozilla/5.0 (Macintosh; Intel Mac OS X 10_15_7) AppleWebKit/537.36 (KHTML, like Gecko) Chrome/96.0.4664.110 Safari/537.36",Macintosh,Chrome,96.0.4664.110,"OS X",10_15_7,ac0f2dffeffaa78d35a552e03d03f0a8
32,3,"""",pre-exp,instructionspage1,instructions,1,19859,0.0-1.0-0.0,3SD15I2WEBVYX2RZ7BNPTJHHA9P63F,A2FWZR12905V6J,3PJUZCGDJFHA32WW71QZSUCIJHR98A,DZJP4,DZJP4,3PJUZCGDJFHA32WW71QZSUCIJHR98A,3PJUZCGDJFHA32WW71QZSUCIJHR98A,338054,338054,3,0.06,"[{""page_index"":0,""viewing_time"":3087.4000000059605}]",3087.5,"""","""","""","""","""","""","""","""","""","""","2021-12-31 05:22:17",75.11.200.54,"Mozilla/5.0 (Macintosh; Intel Mac OS X 10_15_7) AppleWebKit/537.36 (KHTML, like Gecko) Chrome/96.0.4664.110 Safari/537.36",Macintosh,Chrome,96.0.4664.110,"OS X",10_15_7,ac0f2dffeffaa78d35a552e03d03f0a8
32,3,"""",pre-exp,instructions_block2,canvas-button-response,2,42520,0.0-2.0-0.0-0.0,3SD15I2WEBVYX2RZ7BNPTJHHA9P63F,A2FWZR12905V6J,3PJUZCGDJFHA32WW71QZSUCIJHR98A,DZJP4,DZJP4,3PJUZCGDJFHA32WW71QZSUCIJHR98A,3PJUZCGDJFHA32WW71QZSUCIJHR98A,338054,338054,3,0.06,"""",22396.09999999404,1,instructionStim1,1,Clockwise,true,"""","""","""","""","""","2021-12-31 05:22:17",75.11.200.54,"Mozilla/5.0 (Macintosh; Intel Mac OS X 10_15_7) AppleWebKit/537.36 (KHTML, like Gecko) Chrome/96.0.4664.110 Safari/537.36",Macintosh,Chrome,96.0.4664.110,"OS X",10_15_7,ac0f2dffeffaa78d35a552e03d03f0a8
32,3,"""",pre-exp,instructions_block3,canvas-button-response,3,45218,0.0-3.0-0.0-0.0,3SD15I2WEBVYX2RZ7BNPTJHHA9P63F,A2FWZR12905V6J,3PJUZCGDJFHA32WW71QZSUCIJHR98A,DZJP4,DZJP4,3PJUZCGDJFHA32WW71QZSUCIJHR98A,3PJUZCGDJFHA32WW71QZSUCIJHR98A,338054,338054,3,0.06,"""",2629.2999999821186,0,instructionStim2,0,Counter-clockwise,true,"""","""","""","""","""","2021-12-31 05:22:17",75.11.200.54,"Mozilla/5.0 (Macintosh; Intel Mac OS X 10_15_7) AppleWebKit/537.36 (KHTML, like Gecko) Chrome/96.0.4664.110 Safari/537.36",Macintosh,Chrome,96.0.4664.110,"OS X",10_15_7,ac0f2dffeffaa78d35a552e03d03f0a8
32,3,"""",pre-exp,instructions_block4,html-slider-response,4,61433,0.0-4.0,3SD15I2WEBVYX2RZ7BNPTJHHA9P63F,A2FWZR12905V6J,3PJUZCGDJFHA32WW71QZSUCIJHR98A,DZJP4,DZJP4,3PJUZCGDJFHA32WW71QZSUCIJHR98A,3PJUZCGDJFHA32WW71QZSUCIJHR98A,338054,338054,3,0.06,"""",16212.5,74,"<div id=""message-div""><p>After you have made your clockwise/counter-clockwise choice, <br>you will be asked to rate how confident you are that you were correct in your clockwise/counter-clockwise choice using a slide bar.<br>Please try to use the entire range of the slider bar.<br>For example, feel free to move the slider to the leftmost location if you are extremely uncertain about your choice, and the rightmost location if you are extremely certain.</p></div>","""","""","""",50,"""","""","""","""","2021-12-31 05:22:17",75.11.200.54,"Mozilla/5.0 (Macintosh; Intel Mac OS X 10_15_7) AppleWebKit/537.36 (KHTML, like Gecko) Chrome/96.0.4664.110 Safari/537.36",Macintosh,Chrome,96.0.4664.110,"OS X",10_15_7,ac0f2dffeffaa78d35a552e03d03f0a8
32,3,"""",pre-exp,instructionspage5,instructions,5,66518,0.0-5.0-0.0,3SD15I2WEBVYX2RZ7BNPTJHHA9P63F,A2FWZR12905V6J,3PJUZCGDJFHA32WW71QZSUCIJHR98A,DZJP4,DZJP4,3PJUZCGDJFHA32WW71QZSUCIJHR98A,3PJUZCGDJFHA32WW71QZSUCIJHR98A,338054,338054,3,0.06,"[{""page_index"":0,""viewing_time"":5082.5}]",5082.699999988079,"""","""","""","""","""","""","""","""","""","""","2021-12-31 05:22:17",75.11.200.54,"Mozilla/5.0 (Macintosh; Intel Mac OS X 10_15_7) AppleWebKit/537.36 (KHTML, like Gecko) Chrome/96.0.4664.110 Safari/537.36",Macintosh,Chrome,96.0.4664.110,"OS X",10_15_7,ac0f2dffeffaa78d35a552e03d03f0a8
32,3,"""",pre-exp,instructionspage6,instructions,6,68383,0.0-6.0-0.0,3SD15I2WEBVYX2RZ7BNPTJHHA9P63F,A2FWZR12905V6J,3PJUZCGDJFHA32WW71QZSUCIJHR98A,DZJP4,DZJP4,3PJUZCGDJFHA32WW71QZSUCIJHR98A,3PJUZCGDJFHA32WW71QZSUCIJHR98A,338054,338054,3,0.06,"[{""page_index"":0,""viewing_time"":1863.5999999940395}]",1863.699999988079,"""","""","""","""","""","""","""","""","""","""","2021-12-31 05:22:17",75.11.200.54,"Mozilla/5.0 (Macintosh; Intel Mac OS X 10_15_7) AppleWebKit/537.36 (KHTML, like Gecko) Chrome/96.0.4664.110 Safari/537.36",Macintosh,Chrome,96.0.4664.110,"OS X",10_15_7,ac0f2dffeffaa78d35a552e03d03f0a8
32,3,"""",pre-exp,instructionspage7,instructions,7,75523,0.0-7.0-0.0,3SD15I2WEBVYX2RZ7BNPTJHHA9P63F,A2FWZR12905V6J,3PJUZCGDJFHA32WW71QZSUCIJHR98A,DZJP4,DZJP4,3PJUZCGDJFHA32WW71QZSUCIJHR98A,3PJUZCGDJFHA32WW71QZSUCIJHR98A,338054,338054,3,0.06,"[{""page_index"":0,""viewing_time"":7137.600000023842}]",7137.700000017881,"""","""","""","""","""","""","""","""","""","""","2021-12-31 05:22:17",75.11.200.54,"Mozilla/5.0 (Macintosh; Intel Mac OS X 10_15_7) AppleWebKit/537.36 (KHTML, like Gecko) Chrome/96.0.4664.110 Safari/537.36",Macintosh,Chrome,96.0.4664.110,"OS X",10_15_7,ac0f2dffeffaa78d35a552e03d03f0a8
32,3,"""",pre-exp,instructionspage8,instructions,8,78262,0.0-8.0-0.0,3SD15I2WEBVYX2RZ7BNPTJHHA9P63F,A2FWZR12905V6J,3PJUZCGDJFHA32WW71QZSUCIJHR98A,DZJP4,DZJP4,3PJUZCGDJFHA32WW71QZSUCIJHR98A,3PJUZCGDJFHA32WW71QZSUCIJHR98A,338054,338054,3,0.06,"[{""page_index"":0,""viewing_time"":2738.300000011921}]",2738.5,"""","""","""","""","""","""","""","""","""","""","2021-12-31 05:22:17",75.11.200.54,"Mozilla/5.0 (Macintosh; Intel Mac OS X 10_15_7) AppleWebKit/537.36 (KHTML, like Gecko) Chrome/96.0.4664.110 Safari/537.36",Macintosh,Chrome,96.0.4664.110,"OS X",10_15_7,ac0f2dffeffaa78d35a552e03d03f0a8
32,3,"""",practice_procedure,fixation,html-keyboard-response,9,78767,0.0-9.0-0.0-0.0,3SD15I2WEBVYX2RZ7BNPTJHHA9P63F,A2FWZR12905V6J,3PJUZCGDJFHA32WW71QZSUCIJHR98A,DZJP4,DZJP4,3PJUZCGDJFHA32WW71QZSUCIJHR98A,3PJUZCGDJFHA32WW71QZSUCIJHR98A,338054,338054,3,0.06,"""",null,null,"<div class = fixationbox><div class = fixation>+</div></div>","""","""","""","""","""","""","""","""","2021-12-31 05:22:17",75.11.200.54,"Mozilla/5.0 (Macintosh; Intel Mac OS X 10_15_7) AppleWebKit/537.36 (KHTML, like Gecko) Chrome/96.0.4664.110 Safari/537.36",Macintosh,Chrome,96.0.4664.110,"OS X",10_15_7,ac0f2dffeffaa78d35a552e03d03f0a8
32,3,"""",practice_procedure,stim_practice,canvas-button-response,10,80008,0.0-9.0-0.0-1.0,3SD15I2WEBVYX2RZ7BNPTJHHA9P63F,A2FWZR12905V6J,3PJUZCGDJFHA32WW71QZSUCIJHR98A,DZJP4,DZJP4,3PJUZCGDJFHA32WW71QZSUCIJHR98A,3PJUZCGDJFHA32WW71QZSUCIJHR98A,338054,338054,3,0.06,"""",1194.6000000238419,0,practiceStim2,0,Counter-clockwise,true,"""",0.01,120,0.99,"""","2021-12-31 05:22:17",75.11.200.54,"Mozilla/5.0 (Macintosh; Intel Mac OS X 10_15_7) AppleWebKit/537.36 (KHTML, like Gecko) Chrome/96.0.4664.110 Safari/537.36",Macintosh,Chrome,96.0.4664.110,"OS X",10_15_7,ac0f2dffeffaa78d35a552e03d03f0a8
32,3,"""",practice_procedure,confidence_rating,html-slider-response,11,82481,0.0-9.0-0.0-2.0,3SD15I2WEBVYX2RZ7BNPTJHHA9P63F,A2FWZR12905V6J,3PJUZCGDJFHA32WW71QZSUCIJHR98A,DZJP4,DZJP4,3PJUZCGDJFHA32WW71QZSUCIJHR98A,3PJUZCGDJFHA32WW71QZSUCIJHR98A,338054,338054,3,0.06,"""",2471.2000000178814,95,"<div id=""message-div""><p>How confident are you that your clockwise/counter-clockwise response just now was accurate? Please rate your confidence on the slider bar below.</p></div>","""","""","""",50,"""","""","""",95,"2021-12-31 05:22:17",75.11.200.54,"Mozilla/5.0 (Macintosh; Intel Mac OS X 10_15_7) AppleWebKit/537.36 (KHTML, like Gecko) Chrome/96.0.4664.110 Safari/537.36",Macintosh,Chrome,96.0.4664.110,"OS X",10_15_7,ac0f2dffeffaa78d35a552e03d03f0a8
32,3,"""",practice_procedure,fixation,html-keyboard-response,12,82982,0.0-9.0-0.0-0.1,3SD15I2WEBVYX2RZ7BNPTJHHA9P63F,A2FWZR12905V6J,3PJUZCGDJFHA32WW71QZSUCIJHR98A,DZJP4,DZJP4,3PJUZCGDJFHA32WW71QZSUCIJHR98A,3PJUZCGDJFHA32WW71QZSUCIJHR98A,338054,338054,3,0.06,"""",null,null,"<div class = fixationbox><div class = fixation>+</div></div>","""","""","""","""","""","""","""","""","2021-12-31 05:22:17",75.11.200.54,"Mozilla/5.0 (Macintosh; Intel Mac OS X 10_15_7) AppleWebKit/537.36 (KHTML, like Gecko) Chrome/96.0.4664.110 Safari/537.36",Macintosh,Chrome,96.0.4664.110,"OS X",10_15_7,ac0f2dffeffaa78d35a552e03d03f0a8
32,3,"""",practice_procedure,stim_practice,canvas-button-response,13,84291,0.0-9.0-0.0-1.1,3SD15I2WEBVYX2RZ7BNPTJHHA9P63F,A2FWZR12905V6J,3PJUZCGDJFHA32WW71QZSUCIJHR98A,DZJP4,DZJP4,3PJUZCGDJFHA32WW71QZSUCIJHR98A,3PJUZCGDJFHA32WW71QZSUCIJHR98A,338054,338054,3,0.06,"""",1263.5,1,practiceStim4,0,Counter-clockwise,false,"""",0.3,120,0.99,"""","2021-12-31 05:22:17",75.11.200.54,"Mozilla/5.0 (Macintosh; Intel Mac OS X 10_15_7) AppleWebKit/537.36 (KHTML, like Gecko) Chrome/96.0.4664.110 Safari/537.36",Macintosh,Chrome,96.0.4664.110,"OS X",10_15_7,ac0f2dffeffaa78d35a552e03d03f0a8
32,3,"""",practice_procedure,confidence_rating,html-slider-response,14,86158,0.0-9.0-0.0-2.1,3SD15I2WEBVYX2RZ7BNPTJHHA9P63F,A2FWZR12905V6J,3PJUZCGDJFHA32WW71QZSUCIJHR98A,DZJP4,DZJP4,3PJUZCGDJFHA32WW71QZSUCIJHR98A,3PJUZCGDJFHA32WW71QZSUCIJHR98A,338054,338054,3,0.06,"""",1864.3999999761581,56,"<div id=""message-div""><p>How confident are you that your clockwise/counter-clockwise response just now was accurate? Please rate your confidence on the slider bar below.</p></div>","""","""","""",50,"""","""","""",56,"2021-12-31 05:22:17",75.11.200.54,"Mozilla/5.0 (Macintosh; Intel Mac OS X 10_15_7) AppleWebKit/537.36 (KHTML, like Gecko) Chrome/96.0.4664.110 Safari/537.36",Macintosh,Chrome,96.0.4664.110,"OS X",10_15_7,ac0f2dffeffaa78d35a552e03d03f0a8
32,3,"""",practice_procedure,fixation,html-keyboard-response,15,86663,0.0-9.0-0.0-0.2,3SD15I2WEBVYX2RZ7BNPTJHHA9P63F,A2FWZR12905V6J,3PJUZCGDJFHA32WW71QZSUCIJHR98A,DZJP4,DZJP4,3PJUZCGDJFHA32WW71QZSUCIJHR98A,3PJUZCGDJFHA32WW71QZSUCIJHR98A,338054,338054,3,0.06,"""",null,null,"<div class = fixationbox><div class = fixation>+</div></div>","""","""","""","""","""","""","""","""","2021-12-31 05:22:17",75.11.200.54,"Mozilla/5.0 (Macintosh; Intel Mac OS X 10_15_7) AppleWebKit/537.36 (KHTML, like Gecko) Chrome/96.0.4664.110 Safari/537.36",Macintosh,Chrome,96.0.4664.110,"OS X",10_15_7,ac0f2dffeffaa78d35a552e03d03f0a8
32,3,"""",practice_procedure,stim_practice,canvas-button-response,16,87814,0.0-9.0-0.0-1.2,3SD15I2WEBVYX2RZ7BNPTJHHA9P63F,A2FWZR12905V6J,3PJUZCGDJFHA32WW71QZSUCIJHR98A,DZJP4,DZJP4,3PJUZCGDJFHA32WW71QZSUCIJHR98A,3PJUZCGDJFHA32WW71QZSUCIJHR98A,338054,338054,3,0.06,"""",1102.5,1,practiceStim1,1,Clockwise,true,"""",0.01,60,0.99,"""","2021-12-31 05:22:17",75.11.200.54,"Mozilla/5.0 (Macintosh; Intel Mac OS X 10_15_7) AppleWebKit/537.36 (KHTML, like Gecko) Chrome/96.0.4664.110 Safari/537.36",Macintosh,Chrome,96.0.4664.110,"OS X",10_15_7,ac0f2dffeffaa78d35a552e03d03f0a8
32,3,"""",practice_procedure,confidence_rating,html-slider-response,17,90126,0.0-9.0-0.0-2.2,3SD15I2WEBVYX2RZ7BNPTJHHA9P63F,A2FWZR12905V6J,3PJUZCGDJFHA32WW71QZSUCIJHR98A,DZJP4,DZJP4,3PJUZCGDJFHA32WW71QZSUCIJHR98A,3PJUZCGDJFHA32WW71QZSUCIJHR98A,338054,338054,3,0.06,"""",2311.199999988079,87,"<div id=""message-div""><p>How confident are you that your clockwise/counter-clockwise response just now was accurate? Please rate your confidence on the slider bar below.</p></div>","""","""","""",50,"""","""","""",87,"2021-12-31 05:22:17",75.11.200.54,"Mozilla/5.0 (Macintosh; Intel Mac OS X 10_15_7) AppleWebKit/537.36 (KHTML, like Gecko) Chrome/96.0.4664.110 Safari/537.36",Macintosh,Chrome,96.0.4664.110,"OS X",10_15_7,ac0f2dffeffaa78d35a552e03d03f0a8
32,3,"""",practice_procedure,fixation,html-keyboard-response,18,90629,0.0-9.0-0.0-0.3,3SD15I2WEBVYX2RZ7BNPTJHHA9P63F,A2FWZR12905V6J,3PJUZCGDJFHA32WW71QZSUCIJHR98A,DZJP4,DZJP4,3PJUZCGDJFHA32WW71QZSUCIJHR98A,3PJUZCGDJFHA32WW71QZSUCIJHR98A,338054,338054,3,0.06,"""",null,null,"<div class = fixationbox><div class = fixation>+</div></div>","""","""","""","""","""","""","""","""","2021-12-31 05:22:17",75.11.200.54,"Mozilla/5.0 (Macintosh; Intel Mac OS X 10_15_7) AppleWebKit/537.36 (KHTML, like Gecko) Chrome/96.0.4664.110 Safari/537.36",Macintosh,Chrome,96.0.4664.110,"OS X",10_15_7,ac0f2dffeffaa78d35a552e03d03f0a8
32,3,"""",practice_procedure,stim_practice,canvas-button-response,19,91629,0.0-9.0-0.0-1.3,3SD15I2WEBVYX2RZ7BNPTJHHA9P63F,A2FWZR12905V6J,3PJUZCGDJFHA32WW71QZSUCIJHR98A,DZJP4,DZJP4,3PJUZCGDJFHA32WW71QZSUCIJHR98A,3PJUZCGDJFHA32WW71QZSUCIJHR98A,338054,338054,3,0.06,"""",964.6999999880791,0,practiceStim4,0,Counter-clockwise,true,"""",0.3,120,0.99,"""","2021-12-31 05:22:17",75.11.200.54,"Mozilla/5.0 (Macintosh; Intel Mac OS X 10_15_7) AppleWebKit/537.36 (KHTML, like Gecko) Chrome/96.0.4664.110 Safari/537.36",Macintosh,Chrome,96.0.4664.110,"OS X",10_15_7,ac0f2dffeffaa78d35a552e03d03f0a8
32,3,"""",practice_procedure,confidence_rating,html-slider-response,20,93609,0.0-9.0-0.0-2.3,3SD15I2WEBVYX2RZ7BNPTJHHA9P63F,A2FWZR12905V6J,3PJUZCGDJFHA32WW71QZSUCIJHR98A,DZJP4,DZJP4,3PJUZCGDJFHA32WW71QZSUCIJHR98A,3PJUZCGDJFHA32WW71QZSUCIJHR98A,338054,338054,3,0.06,"""",1978.800000011921,98,"<div id=""message-div""><p>How confident are you that your clockwise/counter-clockwise response just now was accurate? Please rate your confidence on the slider bar below.</p></div>","""","""","""",50,"""","""","""",98,"2021-12-31 05:22:17",75.11.200.54,"Mozilla/5.0 (Macintosh; Intel Mac OS X 10_15_7) AppleWebKit/537.36 (KHTML, like Gecko) Chrome/96.0.4664.110 Safari/537.36",Macintosh,Chrome,96.0.4664.110,"OS X",10_15_7,ac0f2dffeffaa78d35a552e03d03f0a8
32,3,"""",practice_procedure,fixation,html-keyboard-response,21,94110,0.0-9.0-0.0-0.4,3SD15I2WEBVYX2RZ7BNPTJHHA9P63F,A2FWZR12905V6J,3PJUZCGDJFHA32WW71QZSUCIJHR98A,DZJP4,DZJP4,3PJUZCGDJFHA32WW71QZSUCIJHR98A,3PJUZCGDJFHA32WW71QZSUCIJHR98A,338054,338054,3,0.06,"""",null,null,"<div class = fixationbox><div class = fixation>+</div></div>","""","""","""","""","""","""","""","""","2021-12-31 05:22:17",75.11.200.54,"Mozilla/5.0 (Macintosh; Intel Mac OS X 10_15_7) AppleWebKit/537.36 (KHTML, like Gecko) Chrome/96.0.4664.110 Safari/537.36",Macintosh,Chrome,96.0.4664.110,"OS X",10_15_7,ac0f2dffeffaa78d35a552e03d03f0a8
32,3,"""",practice_procedure,stim_practice,canvas-button-response,22,95265,0.0-9.0-0.0-1.4,3SD15I2WEBVYX2RZ7BNPTJHHA9P63F,A2FWZR12905V6J,3PJUZCGDJFHA32WW71QZSUCIJHR98A,DZJP4,DZJP4,3PJUZCGDJFHA32WW71QZSUCIJHR98A,3PJUZCGDJFHA32WW71QZSUCIJHR98A,338054,338054,3,0.06,"""",1115,1,practiceStim1,1,Clockwise,true,"""",0.01,60,0.99,"""","2021-12-31 05:22:17",75.11.200.54,"Mozilla/5.0 (Macintosh; Intel Mac OS X 10_15_7) AppleWebKit/537.36 (KHTML, like Gecko) Chrome/96.0.4664.110 Safari/537.36",Macintosh,Chrome,96.0.4664.110,"OS X",10_15_7,ac0f2dffeffaa78d35a552e03d03f0a8
32,3,"""",practice_procedure,confidence_rating,html-slider-response,23,96800,0.0-9.0-0.0-2.4,3SD15I2WEBVYX2RZ7BNPTJHHA9P63F,A2FWZR12905V6J,3PJUZCGDJFHA32WW71QZSUCIJHR98A,DZJP4,DZJP4,3PJUZCGDJFHA32WW71QZSUCIJHR98A,3PJUZCGDJFHA32WW71QZSUCIJHR98A,338054,338054,3,0.06,"""",1533.7000000178814,91,"<div id=""message-div""><p>How confident are you that your clockwise/counter-clockwise response just now was accurate? Please rate your confidence on the slider bar below.</p></div>","""","""","""",50,"""","""","""",91,"2021-12-31 05:22:17",75.11.200.54,"Mozilla/5.0 (Macintosh; Intel Mac OS X 10_15_7) AppleWebKit/537.36 (KHTML, like Gecko) Chrome/96.0.4664.110 Safari/537.36",Macintosh,Chrome,96.0.4664.110,"OS X",10_15_7,ac0f2dffeffaa78d35a552e03d03f0a8
32,3,"""",practice_procedure,fixation,html-keyboard-response,24,97302,0.0-9.0-0.0-0.5,3SD15I2WEBVYX2RZ7BNPTJHHA9P63F,A2FWZR12905V6J,3PJUZCGDJFHA32WW71QZSUCIJHR98A,DZJP4,DZJP4,3PJUZCGDJFHA32WW71QZSUCIJHR98A,3PJUZCGDJFHA32WW71QZSUCIJHR98A,338054,338054,3,0.06,"""",null,null,"<div class = fixationbox><div class = fixation>+</div></div>","""","""","""","""","""","""","""","""","2021-12-31 05:22:17",75.11.200.54,"Mozilla/5.0 (Macintosh; Intel Mac OS X 10_15_7) AppleWebKit/537.36 (KHTML, like Gecko) Chrome/96.0.4664.110 Safari/537.36",Macintosh,Chrome,96.0.4664.110,"OS X",10_15_7,ac0f2dffeffaa78d35a552e03d03f0a8
32,3,"""",practice_procedure,stim_practice,canvas-button-response,25,98335,0.0-9.0-0.0-1.5,3SD15I2WEBVYX2RZ7BNPTJHHA9P63F,A2FWZR12905V6J,3PJUZCGDJFHA32WW71QZSUCIJHR98A,DZJP4,DZJP4,3PJUZCGDJFHA32WW71QZSUCIJHR98A,3PJUZCGDJFHA32WW71QZSUCIJHR98A,338054,338054,3,0.06,"""",993.1999999880791,0,practiceStim2,0,Counter-clockwise,true,"""",0.01,120,0.99,"""","2021-12-31 05:22:17",75.11.200.54,"Mozilla/5.0 (Macintosh; Intel Mac OS X 10_15_7) AppleWebKit/537.36 (KHTML, like Gecko) Chrome/96.0.4664.110 Safari/537.36",Macintosh,Chrome,96.0.4664.110,"OS X",10_15_7,ac0f2dffeffaa78d35a552e03d03f0a8
32,3,"""",practice_procedure,confidence_rating,html-slider-response,26,100639,0.0-9.0-0.0-2.5,3SD15I2WEBVYX2RZ7BNPTJHHA9P63F,A2FWZR12905V6J,3PJUZCGDJFHA32WW71QZSUCIJHR98A,DZJP4,DZJP4,3PJUZCGDJFHA32WW71QZSUCIJHR98A,3PJUZCGDJFHA32WW71QZSUCIJHR98A,338054,338054,3,0.06,"""",2302.5,75,"<div id=""message-div""><p>How confident are you that your clockwise/counter-clockwise response just now was accurate? Please rate your confidence on the slider bar below.</p></div>","""","""","""",50,"""","""","""",75,"2021-12-31 05:22:17",75.11.200.54,"Mozilla/5.0 (Macintosh; Intel Mac OS X 10_15_7) AppleWebKit/537.36 (KHTML, like Gecko) Chrome/96.0.4664.110 Safari/537.36",Macintosh,Chrome,96.0.4664.110,"OS X",10_15_7,ac0f2dffeffaa78d35a552e03d03f0a8
32,3,"""",practice_procedure,fixation,html-keyboard-response,27,101140,0.0-9.0-0.0-0.6,3SD15I2WEBVYX2RZ7BNPTJHHA9P63F,A2FWZR12905V6J,3PJUZCGDJFHA32WW71QZSUCIJHR98A,DZJP4,DZJP4,3PJUZCGDJFHA32WW71QZSUCIJHR98A,3PJUZCGDJFHA32WW71QZSUCIJHR98A,338054,338054,3,0.06,"""",null,null,"<div class = fixationbox><div class = fixation>+</div></div>","""","""","""","""","""","""","""","""","2021-12-31 05:22:17",75.11.200.54,"Mozilla/5.0 (Macintosh; Intel Mac OS X 10_15_7) AppleWebKit/537.36 (KHTML, like Gecko) Chrome/96.0.4664.110 Safari/537.36",Macintosh,Chrome,96.0.4664.110,"OS X",10_15_7,ac0f2dffeffaa78d35a552e03d03f0a8
32,3,"""",practice_procedure,stim_practice,canvas-button-response,28,102271,0.0-9.0-0.0-1.6,3SD15I2WEBVYX2RZ7BNPTJHHA9P63F,A2FWZR12905V6J,3PJUZCGDJFHA32WW71QZSUCIJHR98A,DZJP4,DZJP4,3PJUZCGDJFHA32WW71QZSUCIJHR98A,3PJUZCGDJFHA32WW71QZSUCIJHR98A,338054,338054,3,0.06,"""",1093.0999999940395,0,practiceStim4,0,Counter-clockwise,true,"""",0.3,120,0.99,"""","2021-12-31 05:22:17",75.11.200.54,"Mozilla/5.0 (Macintosh; Intel Mac OS X 10_15_7) AppleWebKit/537.36 (KHTML, like Gecko) Chrome/96.0.4664.110 Safari/537.36",Macintosh,Chrome,96.0.4664.110,"OS X",10_15_7,ac0f2dffeffaa78d35a552e03d03f0a8
32,3,"""",practice_procedure,confidence_rating,html-slider-response,29,104041,0.0-9.0-0.0-2.6,3SD15I2WEBVYX2RZ7BNPTJHHA9P63F,A2FWZR12905V6J,3PJUZCGDJFHA32WW71QZSUCIJHR98A,DZJP4,DZJP4,3PJUZCGDJFHA32WW71QZSUCIJHR98A,3PJUZCGDJFHA32WW71QZSUCIJHR98A,338054,338054,3,0.06,"""",1766.0999999940395,77,"<div id=""message-div""><p>How confident are you that your clockwise/counter-clockwise response just now was accurate? Please rate your confidence on the slider bar below.</p></div>","""","""","""",50,"""","""","""",77,"2021-12-31 05:22:17",75.11.200.54,"Mozilla/5.0 (Macintosh; Intel Mac OS X 10_15_7) AppleWebKit/537.36 (KHTML, like Gecko) Chrome/96.0.4664.110 Safari/537.36",Macintosh,Chrome,96.0.4664.110,"OS X",10_15_7,ac0f2dffeffaa78d35a552e03d03f0a8
32,3,"""",practice_procedure,fixation,html-keyboard-response,30,104542,0.0-9.0-0.0-0.7,3SD15I2WEBVYX2RZ7BNPTJHHA9P63F,A2FWZR12905V6J,3PJUZCGDJFHA32WW71QZSUCIJHR98A,DZJP4,DZJP4,3PJUZCGDJFHA32WW71QZSUCIJHR98A,3PJUZCGDJFHA32WW71QZSUCIJHR98A,338054,338054,3,0.06,"""",null,null,"<div class = fixationbox><div class = fixation>+</div></div>","""","""","""","""","""","""","""","""","2021-12-31 05:22:17",75.11.200.54,"Mozilla/5.0 (Macintosh; Intel Mac OS X 10_15_7) AppleWebKit/537.36 (KHTML, like Gecko) Chrome/96.0.4664.110 Safari/537.36",Macintosh,Chrome,96.0.4664.110,"OS X",10_15_7,ac0f2dffeffaa78d35a552e03d03f0a8
32,3,"""",practice_procedure,stim_practice,canvas-button-response,31,105561,0.0-9.0-0.0-1.7,3SD15I2WEBVYX2RZ7BNPTJHHA9P63F,A2FWZR12905V6J,3PJUZCGDJFHA32WW71QZSUCIJHR98A,DZJP4,DZJP4,3PJUZCGDJFHA32WW71QZSUCIJHR98A,3PJUZCGDJFHA32WW71QZSUCIJHR98A,338054,338054,3,0.06,"""",976,0,practiceStim4,0,Counter-clockwise,true,"""",0.3,120,0.99,"""","2021-12-31 05:22:17",75.11.200.54,"Mozilla/5.0 (Macintosh; Intel Mac OS X 10_15_7) AppleWebKit/537.36 (KHTML, like Gecko) Chrome/96.0.4664.110 Safari/537.36",Macintosh,Chrome,96.0.4664.110,"OS X",10_15_7,ac0f2dffeffaa78d35a552e03d03f0a8
32,3,"""",practice_procedure,confidence_rating,html-slider-response,32,107023,0.0-9.0-0.0-2.7,3SD15I2WEBVYX2RZ7BNPTJHHA9P63F,A2FWZR12905V6J,3PJUZCGDJFHA32WW71QZSUCIJHR98A,DZJP4,DZJP4,3PJUZCGDJFHA32WW71QZSUCIJHR98A,3PJUZCGDJFHA32WW71QZSUCIJHR98A,338054,338054,3,0.06,"""",1461.2999999821186,84,"<div id=""message-div""><p>How confident are you that your clockwise/counter-clockwise response just now was accurate? Please rate your confidence on the slider bar below.</p></div>","""","""","""",50,"""","""","""",84,"2021-12-31 05:22:17",75.11.200.54,"Mozilla/5.0 (Macintosh; Intel Mac OS X 10_15_7) AppleWebKit/537.36 (KHTML, like Gecko) Chrome/96.0.4664.110 Safari/537.36",Macintosh,Chrome,96.0.4664.110,"OS X",10_15_7,ac0f2dffeffaa78d35a552e03d03f0a8
32,3,"""",practice_procedure,fixation,html-keyboard-response,33,107524,0.0-9.0-0.0-0.8,3SD15I2WEBVYX2RZ7BNPTJHHA9P63F,A2FWZR12905V6J,3PJUZCGDJFHA32WW71QZSUCIJHR98A,DZJP4,DZJP4,3PJUZCGDJFHA32WW71QZSUCIJHR98A,3PJUZCGDJFHA32WW71QZSUCIJHR98A,338054,338054,3,0.06,"""",null,null,"<div class = fixationbox><div class = fixation>+</div></div>","""","""","""","""","""","""","""","""","2021-12-31 05:22:17",75.11.200.54,"Mozilla/5.0 (Macintosh; Intel Mac OS X 10_15_7) AppleWebKit/537.36 (KHTML, like Gecko) Chrome/96.0.4664.110 Safari/537.36",Macintosh,Chrome,96.0.4664.110,"OS X",10_15_7,ac0f2dffeffaa78d35a552e03d03f0a8
32,3,"""",practice_procedure,stim_practice,canvas-button-response,34,108727,0.0-9.0-0.0-1.8,3SD15I2WEBVYX2RZ7BNPTJHHA9P63F,A2FWZR12905V6J,3PJUZCGDJFHA32WW71QZSUCIJHR98A,DZJP4,DZJP4,3PJUZCGDJFHA32WW71QZSUCIJHR98A,3PJUZCGDJFHA32WW71QZSUCIJHR98A,338054,338054,3,0.06,"""",1161.5,0,practiceStim2,0,Counter-clockwise,true,"""",0.01,120,0.99,"""","2021-12-31 05:22:17",75.11.200.54,"Mozilla/5.0 (Macintosh; Intel Mac OS X 10_15_7) AppleWebKit/537.36 (KHTML, like Gecko) Chrome/96.0.4664.110 Safari/537.36",Macintosh,Chrome,96.0.4664.110,"OS X",10_15_7,ac0f2dffeffaa78d35a552e03d03f0a8
32,3,"""",practice_procedure,confidence_rating,html-slider-response,35,110660,0.0-9.0-0.0-2.8,3SD15I2WEBVYX2RZ7BNPTJHHA9P63F,A2FWZR12905V6J,3PJUZCGDJFHA32WW71QZSUCIJHR98A,DZJP4,DZJP4,3PJUZCGDJFHA32WW71QZSUCIJHR98A,3PJUZCGDJFHA32WW71QZSUCIJHR98A,338054,338054,3,0.06,"""",1930,83,"<div id=""message-div""><p>How confident are you that your clockwise/counter-clockwise response just now was accurate? Please rate your confidence on the slider bar below.</p></div>","""","""","""",50,"""","""","""",83,"2021-12-31 05:22:17",75.11.200.54,"Mozilla/5.0 (Macintosh; Intel Mac OS X 10_15_7) AppleWebKit/537.36 (KHTML, like Gecko) Chrome/96.0.4664.110 Safari/537.36",Macintosh,Chrome,96.0.4664.110,"OS X",10_15_7,ac0f2dffeffaa78d35a552e03d03f0a8
32,3,"""",practice_procedure,fixation,html-keyboard-response,36,111161,0.0-9.0-0.0-0.9,3SD15I2WEBVYX2RZ7BNPTJHHA9P63F,A2FWZR12905V6J,3PJUZCGDJFHA32WW71QZSUCIJHR98A,DZJP4,DZJP4,3PJUZCGDJFHA32WW71QZSUCIJHR98A,3PJUZCGDJFHA32WW71QZSUCIJHR98A,338054,338054,3,0.06,"""",null,null,"<div class = fixationbox><div class = fixation>+</div></div>","""","""","""","""","""","""","""","""","2021-12-31 05:22:17",75.11.200.54,"Mozilla/5.0 (Macintosh; Intel Mac OS X 10_15_7) AppleWebKit/537.36 (KHTML, like Gecko) Chrome/96.0.4664.110 Safari/537.36",Macintosh,Chrome,96.0.4664.110,"OS X",10_15_7,ac0f2dffeffaa78d35a552e03d03f0a8
32,3,"""",practice_procedure,stim_practice,canvas-button-response,37,112534,0.0-9.0-0.0-1.9,3SD15I2WEBVYX2RZ7BNPTJHHA9P63F,A2FWZR12905V6J,3PJUZCGDJFHA32WW71QZSUCIJHR98A,DZJP4,DZJP4,3PJUZCGDJFHA32WW71QZSUCIJHR98A,3PJUZCGDJFHA32WW71QZSUCIJHR98A,338054,338054,3,0.06,"""",1333.800000011921,1,practiceStim3,1,Clockwise,true,"""",0.3,60,0.99,"""","2021-12-31 05:22:17",75.11.200.54,"Mozilla/5.0 (Macintosh; Intel Mac OS X 10_15_7) AppleWebKit/537.36 (KHTML, like Gecko) Chrome/96.0.4664.110 Safari/537.36",Macintosh,Chrome,96.0.4664.110,"OS X",10_15_7,ac0f2dffeffaa78d35a552e03d03f0a8
32,3,"""",practice_procedure,confidence_rating,html-slider-response,38,114611,0.0-9.0-0.0-2.9,3SD15I2WEBVYX2RZ7BNPTJHHA9P63F,A2FWZR12905V6J,3PJUZCGDJFHA32WW71QZSUCIJHR98A,DZJP4,DZJP4,3PJUZCGDJFHA32WW71QZSUCIJHR98A,3PJUZCGDJFHA32WW71QZSUCIJHR98A,338054,338054,3,0.06,"""",2075.300000011921,85,"<div id=""message-div""><p>How confident are you that your clockwise/counter-clockwise response just now was accurate? Please rate your confidence on the slider bar below.</p></div>","""","""","""",50,"""","""","""",85,"2021-12-31 05:22:17",75.11.200.54,"Mozilla/5.0 (Macintosh; Intel Mac OS X 10_15_7) AppleWebKit/537.36 (KHTML, like Gecko) Chrome/96.0.4664.110 Safari/537.36",Macintosh,Chrome,96.0.4664.110,"OS X",10_15_7,ac0f2dffeffaa78d35a552e03d03f0a8
32,3,"""",pre-test,test_instruction,instructions,39,174913,0.0-10.0,3SD15I2WEBVYX2RZ7BNPTJHHA9P63F,A2FWZR12905V6J,3PJUZCGDJFHA32WW71QZSUCIJHR98A,DZJP4,DZJP4,3PJUZCGDJFHA32WW71QZSUCIJHR98A,3PJUZCGDJFHA32WW71QZSUCIJHR98A,338054,338054,3,0.06,"[{""page_index"":0,""viewing_time"":60297.30000001192}]",60297.5,"""","""","""","""","""","""","""","""","""","""","2021-12-31 05:22:17",75.11.200.54,"Mozilla/5.0 (Macintosh; Intel Mac OS X 10_15_7) AppleWebKit/537.36 (KHTML, like Gecko) Chrome/96.0.4664.110 Safari/537.36",Macintosh,Chrome,96.0.4664.110,"OS X",10_15_7,ac0f2dffeffaa78d35a552e03d03f0a8
32,3,"""",test_procedure,fixation,html-keyboard-response,40,175414,0.0-11.0-0.0-0.0,3SD15I2WEBVYX2RZ7BNPTJHHA9P63F,A2FWZR12905V6J,3PJUZCGDJFHA32WW71QZSUCIJHR98A,DZJP4,DZJP4,3PJUZCGDJFHA32WW71QZSUCIJHR98A,3PJUZCGDJFHA32WW71QZSUCIJHR98A,338054,338054,3,0.06,"""",null,null,"<div class = fixationbox><div class = fixation>+</div></div>","""","""","""","""","""","""","""","""","2021-12-31 05:22:17",75.11.200.54,"Mozilla/5.0 (Macintosh; Intel Mac OS X 10_15_7) AppleWebKit/537.36 (KHTML, like Gecko) Chrome/96.0.4664.110 Safari/537.36",Macintosh,Chrome,96.0.4664.110,"OS X",10_15_7,ac0f2dffeffaa78d35a552e03d03f0a8
32,3,"""",test_procedure,stim_test,canvas-button-response,41,176854,0.0-11.0-0.0-1.0,3SD15I2WEBVYX2RZ7BNPTJHHA9P63F,A2FWZR12905V6J,3PJUZCGDJFHA32WW71QZSUCIJHR98A,DZJP4,DZJP4,3PJUZCGDJFHA32WW71QZSUCIJHR98A,3PJUZCGDJFHA32WW71QZSUCIJHR98A,338054,338054,3,0.06,"""",1388.5999999940395,1,stim2,0,Counter-clockwise,false,"""",0.01,120,"""","""","2021-12-31 05:22:17",75.11.200.54,"Mozilla/5.0 (Macintosh; Intel Mac OS X 10_15_7) AppleWebKit/537.36 (KHTML, like Gecko) Chrome/96.0.4664.110 Safari/537.36",Macintosh,Chrome,96.0.4664.110,"OS X",10_15_7,ac0f2dffeffaa78d35a552e03d03f0a8
32,3,"""",test_procedure,confidence_rating,html-slider-response,42,178967,0.0-11.0-0.0-2.0,3SD15I2WEBVYX2RZ7BNPTJHHA9P63F,A2FWZR12905V6J,3PJUZCGDJFHA32WW71QZSUCIJHR98A,DZJP4,DZJP4,3PJUZCGDJFHA32WW71QZSUCIJHR98A,3PJUZCGDJFHA32WW71QZSUCIJHR98A,338054,338054,3,0.06,"""",2111.7999999821186,74,"<div id=""message-div""><p>How confident are you that your clockwise/counter-clockwise response just now was accurate? Please rate your confidence on the slider bar below.</p></div>","""","""","""",50,"""","""","""",74,"2021-12-31 05:22:17",75.11.200.54,"Mozilla/5.0 (Macintosh; Intel Mac OS X 10_15_7) AppleWebKit/537.36 (KHTML, like Gecko) Chrome/96.0.4664.110 Safari/537.36",Macintosh,Chrome,96.0.4664.110,"OS X",10_15_7,ac0f2dffeffaa78d35a552e03d03f0a8
32,3,"""",test_procedure,fixation,html-keyboard-response,43,179469,0.0-11.0-0.0-0.1,3SD15I2WEBVYX2RZ7BNPTJHHA9P63F,A2FWZR12905V6J,3PJUZCGDJFHA32WW71QZSUCIJHR98A,DZJP4,DZJP4,3PJUZCGDJFHA32WW71QZSUCIJHR98A,3PJUZCGDJFHA32WW71QZSUCIJHR98A,338054,338054,3,0.06,"""",null,null,"<div class = fixationbox><div class = fixation>+</div></div>","""","""","""","""","""","""","""","""","2021-12-31 05:22:17",75.11.200.54,"Mozilla/5.0 (Macintosh; Intel Mac OS X 10_15_7) AppleWebKit/537.36 (KHTML, like Gecko) Chrome/96.0.4664.110 Safari/537.36",Macintosh,Chrome,96.0.4664.110,"OS X",10_15_7,ac0f2dffeffaa78d35a552e03d03f0a8
32,3,"""",test_procedure,stim_test,canvas-button-response,44,180733,0.0-11.0-0.0-1.1,3SD15I2WEBVYX2RZ7BNPTJHHA9P63F,A2FWZR12905V6J,3PJUZCGDJFHA32WW71QZSUCIJHR98A,DZJP4,DZJP4,3PJUZCGDJFHA32WW71QZSUCIJHR98A,3PJUZCGDJFHA32WW71QZSUCIJHR98A,338054,338054,3,0.06,"""",1222.300000011921,1,stim3,1,Clockwise,true,"""",0.3,60,"""","""","2021-12-31 05:22:17",75.11.200.54,"Mozilla/5.0 (Macintosh; Intel Mac OS X 10_15_7) AppleWebKit/537.36 (KHTML, like Gecko) Chrome/96.0.4664.110 Safari/537.36",Macintosh,Chrome,96.0.4664.110,"OS X",10_15_7,ac0f2dffeffaa78d35a552e03d03f0a8
32,3,"""",test_procedure,confidence_rating,html-slider-response,45,182422,0.0-11.0-0.0-2.1,3SD15I2WEBVYX2RZ7BNPTJHHA9P63F,A2FWZR12905V6J,3PJUZCGDJFHA32WW71QZSUCIJHR98A,DZJP4,DZJP4,3PJUZCGDJFHA32WW71QZSUCIJHR98A,3PJUZCGDJFHA32WW71QZSUCIJHR98A,338054,338054,3,0.06,"""",1688.4000000059605,80,"<div id=""message-div""><p>How confident are you that your clockwise/counter-clockwise response just now was accurate? Please rate your confidence on the slider bar below.</p></div>","""","""","""",50,"""","""","""",80,"2021-12-31 05:22:17",75.11.200.54,"Mozilla/5.0 (Macintosh; Intel Mac OS X 10_15_7) AppleWebKit/537.36 (KHTML, like Gecko) Chrome/96.0.4664.110 Safari/537.36",Macintosh,Chrome,96.0.4664.110,"OS X",10_15_7,ac0f2dffeffaa78d35a552e03d03f0a8
32,3,"""",test_procedure,fixation,html-keyboard-response,46,182926,0.0-11.0-0.0-0.2,3SD15I2WEBVYX2RZ7BNPTJHHA9P63F,A2FWZR12905V6J,3PJUZCGDJFHA32WW71QZSUCIJHR98A,DZJP4,DZJP4,3PJUZCGDJFHA32WW71QZSUCIJHR98A,3PJUZCGDJFHA32WW71QZSUCIJHR98A,338054,338054,3,0.06,"""",null,null,"<div class = fixationbox><div class = fixation>+</div></div>","""","""","""","""","""","""","""","""","2021-12-31 05:22:17",75.11.200.54,"Mozilla/5.0 (Macintosh; Intel Mac OS X 10_15_7) AppleWebKit/537.36 (KHTML, like Gecko) Chrome/96.0.4664.110 Safari/537.36",Macintosh,Chrome,96.0.4664.110,"OS X",10_15_7,ac0f2dffeffaa78d35a552e03d03f0a8
32,3,"""",test_procedure,stim_test,canvas-button-response,47,184467,0.0-11.0-0.0-1.2,3SD15I2WEBVYX2RZ7BNPTJHHA9P63F,A2FWZR12905V6J,3PJUZCGDJFHA32WW71QZSUCIJHR98A,DZJP4,DZJP4,3PJUZCGDJFHA32WW71QZSUCIJHR98A,3PJUZCGDJFHA32WW71QZSUCIJHR98A,338054,338054,3,0.06,"""",1509.4000000059605,1,stim3,1,Clockwise,true,"""",0.3,60,"""","""","2021-12-31 05:22:17",75.11.200.54,"Mozilla/5.0 (Macintosh; Intel Mac OS X 10_15_7) AppleWebKit/537.36 (KHTML, like Gecko) Chrome/96.0.4664.110 Safari/537.36",Macintosh,Chrome,96.0.4664.110,"OS X",10_15_7,ac0f2dffeffaa78d35a552e03d03f0a8
32,3,"""",test_procedure,confidence_rating,html-slider-response,48,185995,0.0-11.0-0.0-2.2,3SD15I2WEBVYX2RZ7BNPTJHHA9P63F,A2FWZR12905V6J,3PJUZCGDJFHA32WW71QZSUCIJHR98A,DZJP4,DZJP4,3PJUZCGDJFHA32WW71QZSUCIJHR98A,3PJUZCGDJFHA32WW71QZSUCIJHR98A,338054,338054,3,0.06,"""",1526.9000000059605,83,"<div id=""message-div""><p>How confident are you that your clockwise/counter-clockwise response just now was accurate? Please rate your confidence on the slider bar below.</p></div>","""","""","""",50,"""","""","""",83,"2021-12-31 05:22:17",75.11.200.54,"Mozilla/5.0 (Macintosh; Intel Mac OS X 10_15_7) AppleWebKit/537.36 (KHTML, like Gecko) Chrome/96.0.4664.110 Safari/537.36",Macintosh,Chrome,96.0.4664.110,"OS X",10_15_7,ac0f2dffeffaa78d35a552e03d03f0a8
32,3,"""",test_procedure,fixation,html-keyboard-response,49,186499,0.0-11.0-0.0-0.3,3SD15I2WEBVYX2RZ7BNPTJHHA9P63F,A2FWZR12905V6J,3PJUZCGDJFHA32WW71QZSUCIJHR98A,DZJP4,DZJP4,3PJUZCGDJFHA32WW71QZSUCIJHR98A,3PJUZCGDJFHA32WW71QZSUCIJHR98A,338054,338054,3,0.06,"""",null,null,"<div class = fixationbox><div class = fixation>+</div></div>","""","""","""","""","""","""","""","""","2021-12-31 05:22:17",75.11.200.54,"Mozilla/5.0 (Macintosh; Intel Mac OS X 10_15_7) AppleWebKit/537.36 (KHTML, like Gecko) Chrome/96.0.4664.110 Safari/537.36",Macintosh,Chrome,96.0.4664.110,"OS X",10_15_7,ac0f2dffeffaa78d35a552e03d03f0a8
32,3,"""",test_procedure,stim_test,canvas-button-response,50,187724,0.0-11.0-0.0-1.3,3SD15I2WEBVYX2RZ7BNPTJHHA9P63F,A2FWZR12905V6J,3PJUZCGDJFHA32WW71QZSUCIJHR98A,DZJP4,DZJP4,3PJUZCGDJFHA32WW71QZSUCIJHR98A,3PJUZCGDJFHA32WW71QZSUCIJHR98A,338054,338054,3,0.06,"""",1188.800000011921,1,stim3,1,Clockwise,true,"""",0.3,60,"""","""","2021-12-31 05:22:17",75.11.200.54,"Mozilla/5.0 (Macintosh; Intel Mac OS X 10_15_7) AppleWebKit/537.36 (KHTML, like Gecko) Chrome/96.0.4664.110 Safari/537.36",Macintosh,Chrome,96.0.4664.110,"OS X",10_15_7,ac0f2dffeffaa78d35a552e03d03f0a8
32,3,"""",test_procedure,confidence_rating,html-slider-response,51,189697,0.0-11.0-0.0-2.3,3SD15I2WEBVYX2RZ7BNPTJHHA9P63F,A2FWZR12905V6J,3PJUZCGDJFHA32WW71QZSUCIJHR98A,DZJP4,DZJP4,3PJUZCGDJFHA32WW71QZSUCIJHR98A,3PJUZCGDJFHA32WW71QZSUCIJHR98A,338054,338054,3,0.06,"""",1971.9000000059605,59,"<div id=""message-div""><p>How confident are you that your clockwise/counter-clockwise response just now was accurate? Please rate your confidence on the slider bar below.</p></div>","""","""","""",50,"""","""","""",59,"2021-12-31 05:22:17",75.11.200.54,"Mozilla/5.0 (Macintosh; Intel Mac OS X 10_15_7) AppleWebKit/537.36 (KHTML, like Gecko) Chrome/96.0.4664.110 Safari/537.36",Macintosh,Chrome,96.0.4664.110,"OS X",10_15_7,ac0f2dffeffaa78d35a552e03d03f0a8
32,3,"""",test_procedure,fixation,html-keyboard-response,52,190200,0.0-11.0-0.0-0.4,3SD15I2WEBVYX2RZ7BNPTJHHA9P63F,A2FWZR12905V6J,3PJUZCGDJFHA32WW71QZSUCIJHR98A,DZJP4,DZJP4,3PJUZCGDJFHA32WW71QZSUCIJHR98A,3PJUZCGDJFHA32WW71QZSUCIJHR98A,338054,338054,3,0.06,"""",null,null,"<div class = fixationbox><div class = fixation>+</div></div>","""","""","""","""","""","""","""","""","2021-12-31 05:22:17",75.11.200.54,"Mozilla/5.0 (Macintosh; Intel Mac OS X 10_15_7) AppleWebKit/537.36 (KHTML, like Gecko) Chrome/96.0.4664.110 Safari/537.36",Macintosh,Chrome,96.0.4664.110,"OS X",10_15_7,ac0f2dffeffaa78d35a552e03d03f0a8
32,3,"""",test_procedure,stim_test,canvas-button-response,53,191249,0.0-11.0-0.0-1.4,3SD15I2WEBVYX2RZ7BNPTJHHA9P63F,A2FWZR12905V6J,3PJUZCGDJFHA32WW71QZSUCIJHR98A,DZJP4,DZJP4,3PJUZCGDJFHA32WW71QZSUCIJHR98A,3PJUZCGDJFHA32WW71QZSUCIJHR98A,338054,338054,3,0.06,"""",1006.5,0,stim4,0,Counter-clockwise,true,"""",0.3,120,"""","""","2021-12-31 05:22:17",75.11.200.54,"Mozilla/5.0 (Macintosh; Intel Mac OS X 10_15_7) AppleWebKit/537.36 (KHTML, like Gecko) Chrome/96.0.4664.110 Safari/537.36",Macintosh,Chrome,96.0.4664.110,"OS X",10_15_7,ac0f2dffeffaa78d35a552e03d03f0a8
32,3,"""",test_procedure,confidence_rating,html-slider-response,54,193026,0.0-11.0-0.0-2.4,3SD15I2WEBVYX2RZ7BNPTJHHA9P63F,A2FWZR12905V6J,3PJUZCGDJFHA32WW71QZSUCIJHR98A,DZJP4,DZJP4,3PJUZCGDJFHA32WW71QZSUCIJHR98A,3PJUZCGDJFHA32WW71QZSUCIJHR98A,338054,338054,3,0.06,"""",1776.4000000059605,63,"<div id=""message-div""><p>How confident are you that your clockwise/counter-clockwise response just now was accurate? Please rate your confidence on the slider bar below.</p></div>","""","""","""",50,"""","""","""",63,"2021-12-31 05:22:17",75.11.200.54,"Mozilla/5.0 (Macintosh; Intel Mac OS X 10_15_7) AppleWebKit/537.36 (KHTML, like Gecko) Chrome/96.0.4664.110 Safari/537.36",Macintosh,Chrome,96.0.4664.110,"OS X",10_15_7,ac0f2dffeffaa78d35a552e03d03f0a8
32,3,"""",test_procedure,fixation,html-keyboard-response,55,193528,0.0-11.0-0.0-0.5,3SD15I2WEBVYX2RZ7BNPTJHHA9P63F,A2FWZR12905V6J,3PJUZCGDJFHA32WW71QZSUCIJHR98A,DZJP4,DZJP4,3PJUZCGDJFHA32WW71QZSUCIJHR98A,3PJUZCGDJFHA32WW71QZSUCIJHR98A,338054,338054,3,0.06,"""",null,null,"<div class = fixationbox><div class = fixation>+</div></div>","""","""","""","""","""","""","""","""","2021-12-31 05:22:17",75.11.200.54,"Mozilla/5.0 (Macintosh; Intel Mac OS X 10_15_7) AppleWebKit/537.36 (KHTML, like Gecko) Chrome/96.0.4664.110 Safari/537.36",Macintosh,Chrome,96.0.4664.110,"OS X",10_15_7,ac0f2dffeffaa78d35a552e03d03f0a8
32,3,"""",test_procedure,stim_test,canvas-button-response,56,195491,0.0-11.0-0.0-1.5,3SD15I2WEBVYX2RZ7BNPTJHHA9P63F,A2FWZR12905V6J,3PJUZCGDJFHA32WW71QZSUCIJHR98A,DZJP4,DZJP4,3PJUZCGDJFHA32WW71QZSUCIJHR98A,3PJUZCGDJFHA32WW71QZSUCIJHR98A,338054,338054,3,0.06,"""",1921.9000000059605,1,stim4,0,Counter-clockwise,false,"""",0.3,120,"""","""","2021-12-31 05:22:17",75.11.200.54,"Mozilla/5.0 (Macintosh; Intel Mac OS X 10_15_7) AppleWebKit/537.36 (KHTML, like Gecko) Chrome/96.0.4664.110 Safari/537.36",Macintosh,Chrome,96.0.4664.110,"OS X",10_15_7,ac0f2dffeffaa78d35a552e03d03f0a8
32,3,"""",test_procedure,confidence_rating,html-slider-response,57,197091,0.0-11.0-0.0-2.5,3SD15I2WEBVYX2RZ7BNPTJHHA9P63F,A2FWZR12905V6J,3PJUZCGDJFHA32WW71QZSUCIJHR98A,DZJP4,DZJP4,3PJUZCGDJFHA32WW71QZSUCIJHR98A,3PJUZCGDJFHA32WW71QZSUCIJHR98A,338054,338054,3,0.06,"""",1596.5,68,"<div id=""message-div""><p>How confident are you that your clockwise/counter-clockwise response just now was accurate? Please rate your confidence on the slider bar below.</p></div>","""","""","""",50,"""","""","""",68,"2021-12-31 05:22:17",75.11.200.54,"Mozilla/5.0 (Macintosh; Intel Mac OS X 10_15_7) AppleWebKit/537.36 (KHTML, like Gecko) Chrome/96.0.4664.110 Safari/537.36",Macintosh,Chrome,96.0.4664.110,"OS X",10_15_7,ac0f2dffeffaa78d35a552e03d03f0a8
32,3,"""",test_procedure,fixation,html-keyboard-response,58,197592,0.0-11.0-0.0-0.6,3SD15I2WEBVYX2RZ7BNPTJHHA9P63F,A2FWZR12905V6J,3PJUZCGDJFHA32WW71QZSUCIJHR98A,DZJP4,DZJP4,3PJUZCGDJFHA32WW71QZSUCIJHR98A,3PJUZCGDJFHA32WW71QZSUCIJHR98A,338054,338054,3,0.06,"""",null,null,"<div class = fixationbox><div class = fixation>+</div></div>","""","""","""","""","""","""","""","""","2021-12-31 05:22:17",75.11.200.54,"Mozilla/5.0 (Macintosh; Intel Mac OS X 10_15_7) AppleWebKit/537.36 (KHTML, like Gecko) Chrome/96.0.4664.110 Safari/537.36",Macintosh,Chrome,96.0.4664.110,"OS X",10_15_7,ac0f2dffeffaa78d35a552e03d03f0a8
32,3,"""",test_procedure,stim_test,canvas-button-response,59,199758,0.0-11.0-0.0-1.6,3SD15I2WEBVYX2RZ7BNPTJHHA9P63F,A2FWZR12905V6J,3PJUZCGDJFHA32WW71QZSUCIJHR98A,DZJP4,DZJP4,3PJUZCGDJFHA32WW71QZSUCIJHR98A,3PJUZCGDJFHA32WW71QZSUCIJHR98A,338054,338054,3,0.06,"""",2125.199999988079,0,stim4,0,Counter-clockwise,true,"""",0.3,120,"""","""","2021-12-31 05:22:17",75.11.200.54,"Mozilla/5.0 (Macintosh; Intel Mac OS X 10_15_7) AppleWebKit/537.36 (KHTML, like Gecko) Chrome/96.0.4664.110 Safari/537.36",Macintosh,Chrome,96.0.4664.110,"OS X",10_15_7,ac0f2dffeffaa78d35a552e03d03f0a8
32,3,"""",test_procedure,confidence_rating,html-slider-response,60,201754,0.0-11.0-0.0-2.6,3SD15I2WEBVYX2RZ7BNPTJHHA9P63F,A2FWZR12905V6J,3PJUZCGDJFHA32WW71QZSUCIJHR98A,DZJP4,DZJP4,3PJUZCGDJFHA32WW71QZSUCIJHR98A,3PJUZCGDJFHA32WW71QZSUCIJHR98A,338054,338054,3,0.06,"""",1994.5999999940395,64,"<div id=""message-div""><p>How confident are you that your clockwise/counter-clockwise response just now was accurate? Please rate your confidence on the slider bar below.</p></div>","""","""","""",50,"""","""","""",64,"2021-12-31 05:22:17",75.11.200.54,"Mozilla/5.0 (Macintosh; Intel Mac OS X 10_15_7) AppleWebKit/537.36 (KHTML, like Gecko) Chrome/96.0.4664.110 Safari/537.36",Macintosh,Chrome,96.0.4664.110,"OS X",10_15_7,ac0f2dffeffaa78d35a552e03d03f0a8
32,3,"""",test_procedure,fixation,html-keyboard-response,61,202257,0.0-11.0-0.0-0.7,3SD15I2WEBVYX2RZ7BNPTJHHA9P63F,A2FWZR12905V6J,3PJUZCGDJFHA32WW71QZSUCIJHR98A,DZJP4,DZJP4,3PJUZCGDJFHA32WW71QZSUCIJHR98A,3PJUZCGDJFHA32WW71QZSUCIJHR98A,338054,338054,3,0.06,"""",null,null,"<div class = fixationbox><div class = fixation>+</div></div>","""","""","""","""","""","""","""","""","2021-12-31 05:22:17",75.11.200.54,"Mozilla/5.0 (Macintosh; Intel Mac OS X 10_15_7) AppleWebKit/537.36 (KHTML, like Gecko) Chrome/96.0.4664.110 Safari/537.36",Macintosh,Chrome,96.0.4664.110,"OS X",10_15_7,ac0f2dffeffaa78d35a552e03d03f0a8
32,3,"""",test_procedure,stim_test,canvas-button-response,62,203628,0.0-11.0-0.0-1.7,3SD15I2WEBVYX2RZ7BNPTJHHA9P63F,A2FWZR12905V6J,3PJUZCGDJFHA32WW71QZSUCIJHR98A,DZJP4,DZJP4,3PJUZCGDJFHA32WW71QZSUCIJHR98A,3PJUZCGDJFHA32WW71QZSUCIJHR98A,338054,338054,3,0.06,"""",1335.199999988079,1,stim2,0,Counter-clockwise,false,"""",0.01,120,"""","""","2021-12-31 05:22:17",75.11.200.54,"Mozilla/5.0 (Macintosh; Intel Mac OS X 10_15_7) AppleWebKit/537.36 (KHTML, like Gecko) Chrome/96.0.4664.110 Safari/537.36",Macintosh,Chrome,96.0.4664.110,"OS X",10_15_7,ac0f2dffeffaa78d35a552e03d03f0a8
32,3,"""",test_procedure,confidence_rating,html-slider-response,63,206337,0.0-11.0-0.0-2.7,3SD15I2WEBVYX2RZ7BNPTJHHA9P63F,A2FWZR12905V6J,3PJUZCGDJFHA32WW71QZSUCIJHR98A,DZJP4,DZJP4,3PJUZCGDJFHA32WW71QZSUCIJHR98A,3PJUZCGDJFHA32WW71QZSUCIJHR98A,338054,338054,3,0.06,"""",2708.0999999940395,22,"<div id=""message-div""><p>How confident are you that your clockwise/counter-clockwise response just now was accurate? Please rate your confidence on the slider bar below.</p></div>","""","""","""",50,"""","""","""",22,"2021-12-31 05:22:17",75.11.200.54,"Mozilla/5.0 (Macintosh; Intel Mac OS X 10_15_7) AppleWebKit/537.36 (KHTML, like Gecko) Chrome/96.0.4664.110 Safari/537.36",Macintosh,Chrome,96.0.4664.110,"OS X",10_15_7,ac0f2dffeffaa78d35a552e03d03f0a8
32,3,"""",test_procedure,fixation,html-keyboard-response,64,206841,0.0-11.0-0.0-0.8,3SD15I2WEBVYX2RZ7BNPTJHHA9P63F,A2FWZR12905V6J,3PJUZCGDJFHA32WW71QZSUCIJHR98A,DZJP4,DZJP4,3PJUZCGDJFHA32WW71QZSUCIJHR98A,3PJUZCGDJFHA32WW71QZSUCIJHR98A,338054,338054,3,0.06,"""",null,null,"<div class = fixationbox><div class = fixation>+</div></div>","""","""","""","""","""","""","""","""","2021-12-31 05:22:17",75.11.200.54,"Mozilla/5.0 (Macintosh; Intel Mac OS X 10_15_7) AppleWebKit/537.36 (KHTML, like Gecko) Chrome/96.0.4664.110 Safari/537.36",Macintosh,Chrome,96.0.4664.110,"OS X",10_15_7,ac0f2dffeffaa78d35a552e03d03f0a8
32,3,"""",test_procedure,stim_test,canvas-button-response,65,208697,0.0-11.0-0.0-1.8,3SD15I2WEBVYX2RZ7BNPTJHHA9P63F,A2FWZR12905V6J,3PJUZCGDJFHA32WW71QZSUCIJHR98A,DZJP4,DZJP4,3PJUZCGDJFHA32WW71QZSUCIJHR98A,3PJUZCGDJFHA32WW71QZSUCIJHR98A,338054,338054,3,0.06,"""",1810.5,1,stim3,1,Clockwise,true,"""",0.3,60,"""","""","2021-12-31 05:22:17",75.11.200.54,"Mozilla/5.0 (Macintosh; Intel Mac OS X 10_15_7) AppleWebKit/537.36 (KHTML, like Gecko) Chrome/96.0.4664.110 Safari/537.36",Macintosh,Chrome,96.0.4664.110,"OS X",10_15_7,ac0f2dffeffaa78d35a552e03d03f0a8
32,3,"""",test_procedure,confidence_rating,html-slider-response,66,210257,0.0-11.0-0.0-2.8,3SD15I2WEBVYX2RZ7BNPTJHHA9P63F,A2FWZR12905V6J,3PJUZCGDJFHA32WW71QZSUCIJHR98A,DZJP4,DZJP4,3PJUZCGDJFHA32WW71QZSUCIJHR98A,3PJUZCGDJFHA32WW71QZSUCIJHR98A,338054,338054,3,0.06,"""",1556.4000000059605,69,"<div id=""message-div""><p>How confident are you that your clockwise/counter-clockwise response just now was accurate? Please rate your confidence on the slider bar below.</p></div>","""","""","""",50,"""","""","""",69,"2021-12-31 05:22:17",75.11.200.54,"Mozilla/5.0 (Macintosh; Intel Mac OS X 10_15_7) AppleWebKit/537.36 (KHTML, like Gecko) Chrome/96.0.4664.110 Safari/537.36",Macintosh,Chrome,96.0.4664.110,"OS X",10_15_7,ac0f2dffeffaa78d35a552e03d03f0a8
32,3,"""",test_procedure,fixation,html-keyboard-response,67,210759,0.0-11.0-0.0-0.9,3SD15I2WEBVYX2RZ7BNPTJHHA9P63F,A2FWZR12905V6J,3PJUZCGDJFHA32WW71QZSUCIJHR98A,DZJP4,DZJP4,3PJUZCGDJFHA32WW71QZSUCIJHR98A,3PJUZCGDJFHA32WW71QZSUCIJHR98A,338054,338054,3,0.06,"""",null,null,"<div class = fixationbox><div class = fixation>+</div></div>","""","""","""","""","""","""","""","""","2021-12-31 05:22:17",75.11.200.54,"Mozilla/5.0 (Macintosh; Intel Mac OS X 10_15_7) AppleWebKit/537.36 (KHTML, like Gecko) Chrome/96.0.4664.110 Safari/537.36",Macintosh,Chrome,96.0.4664.110,"OS X",10_15_7,ac0f2dffeffaa78d35a552e03d03f0a8
32,3,"""",test_procedure,stim_test,canvas-button-response,68,214290,0.0-11.0-0.0-1.9,3SD15I2WEBVYX2RZ7BNPTJHHA9P63F,A2FWZR12905V6J,3PJUZCGDJFHA32WW71QZSUCIJHR98A,DZJP4,DZJP4,3PJUZCGDJFHA32WW71QZSUCIJHR98A,3PJUZCGDJFHA32WW71QZSUCIJHR98A,338054,338054,3,0.06,"""",3495.5,0,catchStim2,0,Counter-clockwise,true,"""",0.01,120,0.6,"""","2021-12-31 05:22:17",75.11.200.54,"Mozilla/5.0 (Macintosh; Intel Mac OS X 10_15_7) AppleWebKit/537.36 (KHTML, like Gecko) Chrome/96.0.4664.110 Safari/537.36",Macintosh,Chrome,96.0.4664.110,"OS X",10_15_7,ac0f2dffeffaa78d35a552e03d03f0a8
32,3,"""",test_procedure,confidence_rating,html-slider-response,69,216569,0.0-11.0-0.0-2.9,3SD15I2WEBVYX2RZ7BNPTJHHA9P63F,A2FWZR12905V6J,3PJUZCGDJFHA32WW71QZSUCIJHR98A,DZJP4,DZJP4,3PJUZCGDJFHA32WW71QZSUCIJHR98A,3PJUZCGDJFHA32WW71QZSUCIJHR98A,338054,338054,3,0.06,"""",2275.7000000178814,100,"<div id=""message-div""><p>How confident are you that your clockwise/counter-clockwise response just now was accurate? Please rate your confidence on the slider bar below.</p></div>","""","""","""",50,"""","""","""",100,"2021-12-31 05:22:17",75.11.200.54,"Mozilla/5.0 (Macintosh; Intel Mac OS X 10_15_7) AppleWebKit/537.36 (KHTML, like Gecko) Chrome/96.0.4664.110 Safari/537.36",Macintosh,Chrome,96.0.4664.110,"OS X",10_15_7,ac0f2dffeffaa78d35a552e03d03f0a8
32,3,"""",test_procedure,fixation,html-keyboard-response,70,217073,0.0-11.0-0.0-0.10,3SD15I2WEBVYX2RZ7BNPTJHHA9P63F,A2FWZR12905V6J,3PJUZCGDJFHA32WW71QZSUCIJHR98A,DZJP4,DZJP4,3PJUZCGDJFHA32WW71QZSUCIJHR98A,3PJUZCGDJFHA32WW71QZSUCIJHR98A,338054,338054,3,0.06,"""",null,null,"<div class = fixationbox><div class = fixation>+</div></div>","""","""","""","""","""","""","""","""","2021-12-31 05:22:17",75.11.200.54,"Mozilla/5.0 (Macintosh; Intel Mac OS X 10_15_7) AppleWebKit/537.36 (KHTML, like Gecko) Chrome/96.0.4664.110 Safari/537.36",Macintosh,Chrome,96.0.4664.110,"OS X",10_15_7,ac0f2dffeffaa78d35a552e03d03f0a8
32,3,"""",test_procedure,stim_test,canvas-button-response,71,219130,0.0-11.0-0.0-1.10,3SD15I2WEBVYX2RZ7BNPTJHHA9P63F,A2FWZR12905V6J,3PJUZCGDJFHA32WW71QZSUCIJHR98A,DZJP4,DZJP4,3PJUZCGDJFHA32WW71QZSUCIJHR98A,3PJUZCGDJFHA32WW71QZSUCIJHR98A,338054,338054,3,0.06,"""",2023.199999988079,1,catchStim7,1,Clockwise,true,"""",0.3,60,0.001,"""","2021-12-31 05:22:17",75.11.200.54,"Mozilla/5.0 (Macintosh; Intel Mac OS X 10_15_7) AppleWebKit/537.36 (KHTML, like Gecko) Chrome/96.0.4664.110 Safari/537.36",Macintosh,Chrome,96.0.4664.110,"OS X",10_15_7,ac0f2dffeffaa78d35a552e03d03f0a8
32,3,"""",test_procedure,confidence_rating,html-slider-response,72,221878,0.0-11.0-0.0-2.10,3SD15I2WEBVYX2RZ7BNPTJHHA9P63F,A2FWZR12905V6J,3PJUZCGDJFHA32WW71QZSUCIJHR98A,DZJP4,DZJP4,3PJUZCGDJFHA32WW71QZSUCIJHR98A,3PJUZCGDJFHA32WW71QZSUCIJHR98A,338054,338054,3,0.06,"""",2746.9000000059605,18,"<div id=""message-div""><p>How confident are you that your clockwise/counter-clockwise response just now was accurate? Please rate your confidence on the slider bar below.</p></div>","""","""","""",50,"""","""","""",18,"2021-12-31 05:22:17",75.11.200.54,"Mozilla/5.0 (Macintosh; Intel Mac OS X 10_15_7) AppleWebKit/537.36 (KHTML, like Gecko) Chrome/96.0.4664.110 Safari/537.36",Macintosh,Chrome,96.0.4664.110,"OS X",10_15_7,ac0f2dffeffaa78d35a552e03d03f0a8
32,3,"""",test_procedure,fixation,html-keyboard-response,73,222380,0.0-11.0-0.0-0.11,3SD15I2WEBVYX2RZ7BNPTJHHA9P63F,A2FWZR12905V6J,3PJUZCGDJFHA32WW71QZSUCIJHR98A,DZJP4,DZJP4,3PJUZCGDJFHA32WW71QZSUCIJHR98A,3PJUZCGDJFHA32WW71QZSUCIJHR98A,338054,338054,3,0.06,"""",null,null,"<div class = fixationbox><div class = fixation>+</div></div>","""","""","""","""","""","""","""","""","2021-12-31 05:22:17",75.11.200.54,"Mozilla/5.0 (Macintosh; Intel Mac OS X 10_15_7) AppleWebKit/537.36 (KHTML, like Gecko) Chrome/96.0.4664.110 Safari/537.36",Macintosh,Chrome,96.0.4664.110,"OS X",10_15_7,ac0f2dffeffaa78d35a552e03d03f0a8
32,3,"""",test_procedure,stim_test,canvas-button-response,74,223704,0.0-11.0-0.0-1.11,3SD15I2WEBVYX2RZ7BNPTJHHA9P63F,A2FWZR12905V6J,3PJUZCGDJFHA32WW71QZSUCIJHR98A,DZJP4,DZJP4,3PJUZCGDJFHA32WW71QZSUCIJHR98A,3PJUZCGDJFHA32WW71QZSUCIJHR98A,338054,338054,3,0.06,"""",1278.5999999940395,1,stim1,1,Clockwise,true,"""",0.01,60,"""","""","2021-12-31 05:22:17",75.11.200.54,"Mozilla/5.0 (Macintosh; Intel Mac OS X 10_15_7) AppleWebKit/537.36 (KHTML, like Gecko) Chrome/96.0.4664.110 Safari/537.36",Macintosh,Chrome,96.0.4664.110,"OS X",10_15_7,ac0f2dffeffaa78d35a552e03d03f0a8
32,3,"""",test_procedure,confidence_rating,html-slider-response,75,225313,0.0-11.0-0.0-2.11,3SD15I2WEBVYX2RZ7BNPTJHHA9P63F,A2FWZR12905V6J,3PJUZCGDJFHA32WW71QZSUCIJHR98A,DZJP4,DZJP4,3PJUZCGDJFHA32WW71QZSUCIJHR98A,3PJUZCGDJFHA32WW71QZSUCIJHR98A,338054,338054,3,0.06,"""",1607.5,15,"<div id=""message-div""><p>How confident are you that your clockwise/counter-clockwise response just now was accurate? Please rate your confidence on the slider bar below.</p></div>","""","""","""",50,"""","""","""",15,"2021-12-31 05:22:17",75.11.200.54,"Mozilla/5.0 (Macintosh; Intel Mac OS X 10_15_7) AppleWebKit/537.36 (KHTML, like Gecko) Chrome/96.0.4664.110 Safari/537.36",Macintosh,Chrome,96.0.4664.110,"OS X",10_15_7,ac0f2dffeffaa78d35a552e03d03f0a8
32,3,"""",test_procedure,fixation,html-keyboard-response,76,225817,0.0-11.0-0.0-0.12,3SD15I2WEBVYX2RZ7BNPTJHHA9P63F,A2FWZR12905V6J,3PJUZCGDJFHA32WW71QZSUCIJHR98A,DZJP4,DZJP4,3PJUZCGDJFHA32WW71QZSUCIJHR98A,3PJUZCGDJFHA32WW71QZSUCIJHR98A,338054,338054,3,0.06,"""",null,null,"<div class = fixationbox><div class = fixation>+</div></div>","""","""","""","""","""","""","""","""","2021-12-31 05:22:17",75.11.200.54,"Mozilla/5.0 (Macintosh; Intel Mac OS X 10_15_7) AppleWebKit/537.36 (KHTML, like Gecko) Chrome/96.0.4664.110 Safari/537.36",Macintosh,Chrome,96.0.4664.110,"OS X",10_15_7,ac0f2dffeffaa78d35a552e03d03f0a8
32,3,"""",test_procedure,stim_test,canvas-button-response,77,227858,0.0-11.0-0.0-1.12,3SD15I2WEBVYX2RZ7BNPTJHHA9P63F,A2FWZR12905V6J,3PJUZCGDJFHA32WW71QZSUCIJHR98A,DZJP4,DZJP4,3PJUZCGDJFHA32WW71QZSUCIJHR98A,3PJUZCGDJFHA32WW71QZSUCIJHR98A,338054,338054,3,0.06,"""",2010.5,0,stim2,0,Counter-clockwise,true,"""",0.01,120,"""","""","2021-12-31 05:22:17",75.11.200.54,"Mozilla/5.0 (Macintosh; Intel Mac OS X 10_15_7) AppleWebKit/537.36 (KHTML, like Gecko) Chrome/96.0.4664.110 Safari/537.36",Macintosh,Chrome,96.0.4664.110,"OS X",10_15_7,ac0f2dffeffaa78d35a552e03d03f0a8
32,3,"""",test_procedure,confidence_rating,html-slider-response,78,229232,0.0-11.0-0.0-2.12,3SD15I2WEBVYX2RZ7BNPTJHHA9P63F,A2FWZR12905V6J,3PJUZCGDJFHA32WW71QZSUCIJHR98A,DZJP4,DZJP4,3PJUZCGDJFHA32WW71QZSUCIJHR98A,3PJUZCGDJFHA32WW71QZSUCIJHR98A,338054,338054,3,0.06,"""",1371.4000000059605,71,"<div id=""message-div""><p>How confident are you that your clockwise/counter-clockwise response just now was accurate? Please rate your confidence on the slider bar below.</p></div>","""","""","""",50,"""","""","""",71,"2021-12-31 05:22:17",75.11.200.54,"Mozilla/5.0 (Macintosh; Intel Mac OS X 10_15_7) AppleWebKit/537.36 (KHTML, like Gecko) Chrome/96.0.4664.110 Safari/537.36",Macintosh,Chrome,96.0.4664.110,"OS X",10_15_7,ac0f2dffeffaa78d35a552e03d03f0a8
32,3,"""",test_procedure,fixation,html-keyboard-response,79,229733,0.0-11.0-0.0-0.13,3SD15I2WEBVYX2RZ7BNPTJHHA9P63F,A2FWZR12905V6J,3PJUZCGDJFHA32WW71QZSUCIJHR98A,DZJP4,DZJP4,3PJUZCGDJFHA32WW71QZSUCIJHR98A,3PJUZCGDJFHA32WW71QZSUCIJHR98A,338054,338054,3,0.06,"""",null,null,"<div class = fixationbox><div class = fixation>+</div></div>","""","""","""","""","""","""","""","""","2021-12-31 05:22:17",75.11.200.54,"Mozilla/5.0 (Macintosh; Intel Mac OS X 10_15_7) AppleWebKit/537.36 (KHTML, like Gecko) Chrome/96.0.4664.110 Safari/537.36",Macintosh,Chrome,96.0.4664.110,"OS X",10_15_7,ac0f2dffeffaa78d35a552e03d03f0a8
32,3,"""",test_procedure,stim_test,canvas-button-response,80,231624,0.0-11.0-0.0-1.13,3SD15I2WEBVYX2RZ7BNPTJHHA9P63F,A2FWZR12905V6J,3PJUZCGDJFHA32WW71QZSUCIJHR98A,DZJP4,DZJP4,3PJUZCGDJFHA32WW71QZSUCIJHR98A,3PJUZCGDJFHA32WW71QZSUCIJHR98A,338054,338054,3,0.06,"""",1854,1,stim4,0,Counter-clockwise,false,"""",0.3,120,"""","""","2021-12-31 05:22:17",75.11.200.54,"Mozilla/5.0 (Macintosh; Intel Mac OS X 10_15_7) AppleWebKit/537.36 (KHTML, like Gecko) Chrome/96.0.4664.110 Safari/537.36",Macintosh,Chrome,96.0.4664.110,"OS X",10_15_7,ac0f2dffeffaa78d35a552e03d03f0a8
32,3,"""",test_procedure,confidence_rating,html-slider-response,81,233145,0.0-11.0-0.0-2.13,3SD15I2WEBVYX2RZ7BNPTJHHA9P63F,A2FWZR12905V6J,3PJUZCGDJFHA32WW71QZSUCIJHR98A,DZJP4,DZJP4,3PJUZCGDJFHA32WW71QZSUCIJHR98A,3PJUZCGDJFHA32WW71QZSUCIJHR98A,338054,338054,3,0.06,"""",1519.7999999821186,70,"<div id=""message-div""><p>How confident are you that your clockwise/counter-clockwise response just now was accurate? Please rate your confidence on the slider bar below.</p></div>","""","""","""",50,"""","""","""",70,"2021-12-31 05:22:17",75.11.200.54,"Mozilla/5.0 (Macintosh; Intel Mac OS X 10_15_7) AppleWebKit/537.36 (KHTML, like Gecko) Chrome/96.0.4664.110 Safari/537.36",Macintosh,Chrome,96.0.4664.110,"OS X",10_15_7,ac0f2dffeffaa78d35a552e03d03f0a8
32,3,"""",test_procedure,fixation,html-keyboard-response,82,233649,0.0-11.0-0.0-0.14,3SD15I2WEBVYX2RZ7BNPTJHHA9P63F,A2FWZR12905V6J,3PJUZCGDJFHA32WW71QZSUCIJHR98A,DZJP4,DZJP4,3PJUZCGDJFHA32WW71QZSUCIJHR98A,3PJUZCGDJFHA32WW71QZSUCIJHR98A,338054,338054,3,0.06,"""",null,null,"<div class = fixationbox><div class = fixation>+</div></div>","""","""","""","""","""","""","""","""","2021-12-31 05:22:17",75.11.200.54,"Mozilla/5.0 (Macintosh; Intel Mac OS X 10_15_7) AppleWebKit/537.36 (KHTML, like Gecko) Chrome/96.0.4664.110 Safari/537.36",Macintosh,Chrome,96.0.4664.110,"OS X",10_15_7,ac0f2dffeffaa78d35a552e03d03f0a8
32,3,"""",test_procedure,stim_test,canvas-button-response,83,234931,0.0-11.0-0.0-1.14,3SD15I2WEBVYX2RZ7BNPTJHHA9P63F,A2FWZR12905V6J,3PJUZCGDJFHA32WW71QZSUCIJHR98A,DZJP4,DZJP4,3PJUZCGDJFHA32WW71QZSUCIJHR98A,3PJUZCGDJFHA32WW71QZSUCIJHR98A,338054,338054,3,0.06,"""",1238.800000011921,0,stim1,1,Clockwise,false,"""",0.01,60,"""","""","2021-12-31 05:22:17",75.11.200.54,"Mozilla/5.0 (Macintosh; Intel Mac OS X 10_15_7) AppleWebKit/537.36 (KHTML, like Gecko) Chrome/96.0.4664.110 Safari/537.36",Macintosh,Chrome,96.0.4664.110,"OS X",10_15_7,ac0f2dffeffaa78d35a552e03d03f0a8
32,3,"""",test_procedure,confidence_rating,html-slider-response,84,236692,0.0-11.0-0.0-2.14,3SD15I2WEBVYX2RZ7BNPTJHHA9P63F,A2FWZR12905V6J,3PJUZCGDJFHA32WW71QZSUCIJHR98A,DZJP4,DZJP4,3PJUZCGDJFHA32WW71QZSUCIJHR98A,3PJUZCGDJFHA32WW71QZSUCIJHR98A,338054,338054,3,0.06,"""",1759.5,10,"<div id=""message-div""><p>How confident are you that your clockwise/counter-clockwise response just now was accurate? Please rate your confidence on the slider bar below.</p></div>","""","""","""",50,"""","""","""",10,"2021-12-31 05:22:17",75.11.200.54,"Mozilla/5.0 (Macintosh; Intel Mac OS X 10_15_7) AppleWebKit/537.36 (KHTML, like Gecko) Chrome/96.0.4664.110 Safari/537.36",Macintosh,Chrome,96.0.4664.110,"OS X",10_15_7,ac0f2dffeffaa78d35a552e03d03f0a8
32,3,"""",test_procedure,fixation,html-keyboard-response,85,237196,0.0-11.0-0.0-0.15,3SD15I2WEBVYX2RZ7BNPTJHHA9P63F,A2FWZR12905V6J,3PJUZCGDJFHA32WW71QZSUCIJHR98A,DZJP4,DZJP4,3PJUZCGDJFHA32WW71QZSUCIJHR98A,3PJUZCGDJFHA32WW71QZSUCIJHR98A,338054,338054,3,0.06,"""",null,null,"<div class = fixationbox><div class = fixation>+</div></div>","""","""","""","""","""","""","""","""","2021-12-31 05:22:17",75.11.200.54,"Mozilla/5.0 (Macintosh; Intel Mac OS X 10_15_7) AppleWebKit/537.36 (KHTML, like Gecko) Chrome/96.0.4664.110 Safari/537.36",Macintosh,Chrome,96.0.4664.110,"OS X",10_15_7,ac0f2dffeffaa78d35a552e03d03f0a8
32,3,"""",test_procedure,stim_test,canvas-button-response,86,238487,0.0-11.0-0.0-1.15,3SD15I2WEBVYX2RZ7BNPTJHHA9P63F,A2FWZR12905V6J,3PJUZCGDJFHA32WW71QZSUCIJHR98A,DZJP4,DZJP4,3PJUZCGDJFHA32WW71QZSUCIJHR98A,3PJUZCGDJFHA32WW71QZSUCIJHR98A,338054,338054,3,0.06,"""",1254.199999988079,1,catchStim1,1,Clockwise,true,"""",0.01,60,0.6,"""","2021-12-31 05:22:17",75.11.200.54,"Mozilla/5.0 (Macintosh; Intel Mac OS X 10_15_7) AppleWebKit/537.36 (KHTML, like Gecko) Chrome/96.0.4664.110 Safari/537.36",Macintosh,Chrome,96.0.4664.110,"OS X",10_15_7,ac0f2dffeffaa78d35a552e03d03f0a8
32,3,"""",test_procedure,confidence_rating,html-slider-response,87,240345,0.0-11.0-0.0-2.15,3SD15I2WEBVYX2RZ7BNPTJHHA9P63F,A2FWZR12905V6J,3PJUZCGDJFHA32WW71QZSUCIJHR98A,DZJP4,DZJP4,3PJUZCGDJFHA32WW71QZSUCIJHR98A,3PJUZCGDJFHA32WW71QZSUCIJHR98A,338054,338054,3,0.06,"""",1856.5,98,"<div id=""message-div""><p>How confident are you that your clockwise/counter-clockwise response just now was accurate? Please rate your confidence on the slider bar below.</p></div>","""","""","""",50,"""","""","""",98,"2021-12-31 05:22:17",75.11.200.54,"Mozilla/5.0 (Macintosh; Intel Mac OS X 10_15_7) AppleWebKit/537.36 (KHTML, like Gecko) Chrome/96.0.4664.110 Safari/537.36",Macintosh,Chrome,96.0.4664.110,"OS X",10_15_7,ac0f2dffeffaa78d35a552e03d03f0a8
32,3,"""",test_procedure,fixation,html-keyboard-response,88,240849,0.0-11.0-0.0-0.16,3SD15I2WEBVYX2RZ7BNPTJHHA9P63F,A2FWZR12905V6J,3PJUZCGDJFHA32WW71QZSUCIJHR98A,DZJP4,DZJP4,3PJUZCGDJFHA32WW71QZSUCIJHR98A,3PJUZCGDJFHA32WW71QZSUCIJHR98A,338054,338054,3,0.06,"""",null,null,"<div class = fixationbox><div class = fixation>+</div></div>","""","""","""","""","""","""","""","""","2021-12-31 05:22:17",75.11.200.54,"Mozilla/5.0 (Macintosh; Intel Mac OS X 10_15_7) AppleWebKit/537.36 (KHTML, like Gecko) Chrome/96.0.4664.110 Safari/537.36",Macintosh,Chrome,96.0.4664.110,"OS X",10_15_7,ac0f2dffeffaa78d35a552e03d03f0a8
32,3,"""",test_procedure,stim_test,canvas-button-response,89,242076,0.0-11.0-0.0-1.16,3SD15I2WEBVYX2RZ7BNPTJHHA9P63F,A2FWZR12905V6J,3PJUZCGDJFHA32WW71QZSUCIJHR98A,DZJP4,DZJP4,3PJUZCGDJFHA32WW71QZSUCIJHR98A,3PJUZCGDJFHA32WW71QZSUCIJHR98A,338054,338054,3,0.06,"""",1188,0,stim2,0,Counter-clockwise,true,"""",0.01,120,"""","""","2021-12-31 05:22:17",75.11.200.54,"Mozilla/5.0 (Macintosh; Intel Mac OS X 10_15_7) AppleWebKit/537.36 (KHTML, like Gecko) Chrome/96.0.4664.110 Safari/537.36",Macintosh,Chrome,96.0.4664.110,"OS X",10_15_7,ac0f2dffeffaa78d35a552e03d03f0a8
32,3,"""",test_procedure,confidence_rating,html-slider-response,90,244119,0.0-11.0-0.0-2.16,3SD15I2WEBVYX2RZ7BNPTJHHA9P63F,A2FWZR12905V6J,3PJUZCGDJFHA32WW71QZSUCIJHR98A,DZJP4,DZJP4,3PJUZCGDJFHA32WW71QZSUCIJHR98A,3PJUZCGDJFHA32WW71QZSUCIJHR98A,338054,338054,3,0.06,"""",2042.199999988079,4,"<div id=""message-div""><p>How confident are you that your clockwise/counter-clockwise response just now was accurate? Please rate your confidence on the slider bar below.</p></div>","""","""","""",50,"""","""","""",4,"2021-12-31 05:22:17",75.11.200.54,"Mozilla/5.0 (Macintosh; Intel Mac OS X 10_15_7) AppleWebKit/537.36 (KHTML, like Gecko) Chrome/96.0.4664.110 Safari/537.36",Macintosh,Chrome,96.0.4664.110,"OS X",10_15_7,ac0f2dffeffaa78d35a552e03d03f0a8
32,3,"""",test_procedure,fixation,html-keyboard-response,91,244620,0.0-11.0-0.0-0.17,3SD15I2WEBVYX2RZ7BNPTJHHA9P63F,A2FWZR12905V6J,3PJUZCGDJFHA32WW71QZSUCIJHR98A,DZJP4,DZJP4,3PJUZCGDJFHA32WW71QZSUCIJHR98A,3PJUZCGDJFHA32WW71QZSUCIJHR98A,338054,338054,3,0.06,"""",null,null,"<div class = fixationbox><div class = fixation>+</div></div>","""","""","""","""","""","""","""","""","2021-12-31 05:22:17",75.11.200.54,"Mozilla/5.0 (Macintosh; Intel Mac OS X 10_15_7) AppleWebKit/537.36 (KHTML, like Gecko) Chrome/96.0.4664.110 Safari/537.36",Macintosh,Chrome,96.0.4664.110,"OS X",10_15_7,ac0f2dffeffaa78d35a552e03d03f0a8
32,3,"""",test_procedure,stim_test,canvas-button-response,92,245800,0.0-11.0-0.0-1.17,3SD15I2WEBVYX2RZ7BNPTJHHA9P63F,A2FWZR12905V6J,3PJUZCGDJFHA32WW71QZSUCIJHR98A,DZJP4,DZJP4,3PJUZCGDJFHA32WW71QZSUCIJHR98A,3PJUZCGDJFHA32WW71QZSUCIJHR98A,338054,338054,3,0.06,"""",1136.2999999821186,1,catchStim8,0,Counter-clockwise,false,"""",0.3,120,0.001,"""","2021-12-31 05:22:17",75.11.200.54,"Mozilla/5.0 (Macintosh; Intel Mac OS X 10_15_7) AppleWebKit/537.36 (KHTML, like Gecko) Chrome/96.0.4664.110 Safari/537.36",Macintosh,Chrome,96.0.4664.110,"OS X",10_15_7,ac0f2dffeffaa78d35a552e03d03f0a8
32,3,"""",test_procedure,confidence_rating,html-slider-response,93,247757,0.0-11.0-0.0-2.17,3SD15I2WEBVYX2RZ7BNPTJHHA9P63F,A2FWZR12905V6J,3PJUZCGDJFHA32WW71QZSUCIJHR98A,DZJP4,DZJP4,3PJUZCGDJFHA32WW71QZSUCIJHR98A,3PJUZCGDJFHA32WW71QZSUCIJHR98A,338054,338054,3,0.06,"""",1954.300000011921,19,"<div id=""message-div""><p>How confident are you that your clockwise/counter-clockwise response just now was accurate? Please rate your confidence on the slider bar below.</p></div>","""","""","""",50,"""","""","""",19,"2021-12-31 05:22:17",75.11.200.54,"Mozilla/5.0 (Macintosh; Intel Mac OS X 10_15_7) AppleWebKit/537.36 (KHTML, like Gecko) Chrome/96.0.4664.110 Safari/537.36",Macintosh,Chrome,96.0.4664.110,"OS X",10_15_7,ac0f2dffeffaa78d35a552e03d03f0a8
32,3,"""",test_procedure,fixation,html-keyboard-response,94,248258,0.0-11.0-0.0-0.18,3SD15I2WEBVYX2RZ7BNPTJHHA9P63F,A2FWZR12905V6J,3PJUZCGDJFHA32WW71QZSUCIJHR98A,DZJP4,DZJP4,3PJUZCGDJFHA32WW71QZSUCIJHR98A,3PJUZCGDJFHA32WW71QZSUCIJHR98A,338054,338054,3,0.06,"""",null,null,"<div class = fixationbox><div class = fixation>+</div></div>","""","""","""","""","""","""","""","""","2021-12-31 05:22:17",75.11.200.54,"Mozilla/5.0 (Macintosh; Intel Mac OS X 10_15_7) AppleWebKit/537.36 (KHTML, like Gecko) Chrome/96.0.4664.110 Safari/537.36",Macintosh,Chrome,96.0.4664.110,"OS X",10_15_7,ac0f2dffeffaa78d35a552e03d03f0a8
32,3,"""",test_procedure,stim_test,canvas-button-response,95,249316,0.0-11.0-0.0-1.18,3SD15I2WEBVYX2RZ7BNPTJHHA9P63F,A2FWZR12905V6J,3PJUZCGDJFHA32WW71QZSUCIJHR98A,DZJP4,DZJP4,3PJUZCGDJFHA32WW71QZSUCIJHR98A,3PJUZCGDJFHA32WW71QZSUCIJHR98A,338054,338054,3,0.06,"""",1018.1000000238419,0,catchStim4,0,Counter-clockwise,true,"""",0.01,120,0.001,"""","2021-12-31 05:22:17",75.11.200.54,"Mozilla/5.0 (Macintosh; Intel Mac OS X 10_15_7) AppleWebKit/537.36 (KHTML, like Gecko) Chrome/96.0.4664.110 Safari/537.36",Macintosh,Chrome,96.0.4664.110,"OS X",10_15_7,ac0f2dffeffaa78d35a552e03d03f0a8
32,3,"""",test_procedure,confidence_rating,html-slider-response,96,251062,0.0-11.0-0.0-2.18,3SD15I2WEBVYX2RZ7BNPTJHHA9P63F,A2FWZR12905V6J,3PJUZCGDJFHA32WW71QZSUCIJHR98A,DZJP4,DZJP4,3PJUZCGDJFHA32WW71QZSUCIJHR98A,3PJUZCGDJFHA32WW71QZSUCIJHR98A,338054,338054,3,0.06,"""",1744.199999988079,5,"<div id=""message-div""><p>How confident are you that your clockwise/counter-clockwise response just now was accurate? Please rate your confidence on the slider bar below.</p></div>","""","""","""",50,"""","""","""",5,"2021-12-31 05:22:17",75.11.200.54,"Mozilla/5.0 (Macintosh; Intel Mac OS X 10_15_7) AppleWebKit/537.36 (KHTML, like Gecko) Chrome/96.0.4664.110 Safari/537.36",Macintosh,Chrome,96.0.4664.110,"OS X",10_15_7,ac0f2dffeffaa78d35a552e03d03f0a8
32,3,"""",test_procedure,fixation,html-keyboard-response,97,251563,0.0-11.0-0.0-0.19,3SD15I2WEBVYX2RZ7BNPTJHHA9P63F,A2FWZR12905V6J,3PJUZCGDJFHA32WW71QZSUCIJHR98A,DZJP4,DZJP4,3PJUZCGDJFHA32WW71QZSUCIJHR98A,3PJUZCGDJFHA32WW71QZSUCIJHR98A,338054,338054,3,0.06,"""",null,null,"<div class = fixationbox><div class = fixation>+</div></div>","""","""","""","""","""","""","""","""","2021-12-31 05:22:17",75.11.200.54,"Mozilla/5.0 (Macintosh; Intel Mac OS X 10_15_7) AppleWebKit/537.36 (KHTML, like Gecko) Chrome/96.0.4664.110 Safari/537.36",Macintosh,Chrome,96.0.4664.110,"OS X",10_15_7,ac0f2dffeffaa78d35a552e03d03f0a8
32,3,"""",test_procedure,stim_test,canvas-button-response,98,252953,0.0-11.0-0.0-1.19,3SD15I2WEBVYX2RZ7BNPTJHHA9P63F,A2FWZR12905V6J,3PJUZCGDJFHA32WW71QZSUCIJHR98A,DZJP4,DZJP4,3PJUZCGDJFHA32WW71QZSUCIJHR98A,3PJUZCGDJFHA32WW71QZSUCIJHR98A,338054,338054,3,0.06,"""",1347.300000011921,0,stim1,1,Clockwise,false,"""",0.01,60,"""","""","2021-12-31 05:22:17",75.11.200.54,"Mozilla/5.0 (Macintosh; Intel Mac OS X 10_15_7) AppleWebKit/537.36 (KHTML, like Gecko) Chrome/96.0.4664.110 Safari/537.36",Macintosh,Chrome,96.0.4664.110,"OS X",10_15_7,ac0f2dffeffaa78d35a552e03d03f0a8
32,3,"""",test_procedure,confidence_rating,html-slider-response,99,254997,0.0-11.0-0.0-2.19,3SD15I2WEBVYX2RZ7BNPTJHHA9P63F,A2FWZR12905V6J,3PJUZCGDJFHA32WW71QZSUCIJHR98A,DZJP4,DZJP4,3PJUZCGDJFHA32WW71QZSUCIJHR98A,3PJUZCGDJFHA32WW71QZSUCIJHR98A,338054,338054,3,0.06,"""",2042.9000000059605,49,"<div id=""message-div""><p>How confident are you that your clockwise/counter-clockwise response just now was accurate? Please rate your confidence on the slider bar below.</p></div>","""","""","""",50,"""","""","""",49,"2021-12-31 05:22:17",75.11.200.54,"Mozilla/5.0 (Macintosh; Intel Mac OS X 10_15_7) AppleWebKit/537.36 (KHTML, like Gecko) Chrome/96.0.4664.110 Safari/537.36",Macintosh,Chrome,96.0.4664.110,"OS X",10_15_7,ac0f2dffeffaa78d35a552e03d03f0a8
32,3,"""",test_procedure,fixation,html-keyboard-response,100,255499,0.0-11.0-0.0-0.20,3SD15I2WEBVYX2RZ7BNPTJHHA9P63F,A2FWZR12905V6J,3PJUZCGDJFHA32WW71QZSUCIJHR98A,DZJP4,DZJP4,3PJUZCGDJFHA32WW71QZSUCIJHR98A,3PJUZCGDJFHA32WW71QZSUCIJHR98A,338054,338054,3,0.06,"""",null,null,"<div class = fixationbox><div class = fixation>+</div></div>","""","""","""","""","""","""","""","""","2021-12-31 05:22:17",75.11.200.54,"Mozilla/5.0 (Macintosh; Intel Mac OS X 10_15_7) AppleWebKit/537.36 (KHTML, like Gecko) Chrome/96.0.4664.110 Safari/537.36",Macintosh,Chrome,96.0.4664.110,"OS X",10_15_7,ac0f2dffeffaa78d35a552e03d03f0a8
32,3,"""",test_procedure,stim_test,canvas-button-response,101,256929,0.0-11.0-0.0-1.20,3SD15I2WEBVYX2RZ7BNPTJHHA9P63F,A2FWZR12905V6J,3PJUZCGDJFHA32WW71QZSUCIJHR98A,DZJP4,DZJP4,3PJUZCGDJFHA32WW71QZSUCIJHR98A,3PJUZCGDJFHA32WW71QZSUCIJHR98A,338054,338054,3,0.06,"""",1387.9000000059605,1,catchStim6,0,Counter-clockwise,false,"""",0.3,120,0.6,"""","2021-12-31 05:22:17",75.11.200.54,"Mozilla/5.0 (Macintosh; Intel Mac OS X 10_15_7) AppleWebKit/537.36 (KHTML, like Gecko) Chrome/96.0.4664.110 Safari/537.36",Macintosh,Chrome,96.0.4664.110,"OS X",10_15_7,ac0f2dffeffaa78d35a552e03d03f0a8
32,3,"""",test_procedure,confidence_rating,html-slider-response,102,258756,0.0-11.0-0.0-2.20,3SD15I2WEBVYX2RZ7BNPTJHHA9P63F,A2FWZR12905V6J,3PJUZCGDJFHA32WW71QZSUCIJHR98A,DZJP4,DZJP4,3PJUZCGDJFHA32WW71QZSUCIJHR98A,3PJUZCGDJFHA32WW71QZSUCIJHR98A,338054,338054,3,0.06,"""",1823.800000011921,72,"<div id=""message-div""><p>How confident are you that your clockwise/counter-clockwise response just now was accurate? Please rate your confidence on the slider bar below.</p></div>","""","""","""",50,"""","""","""",72,"2021-12-31 05:22:17",75.11.200.54,"Mozilla/5.0 (Macintosh; Intel Mac OS X 10_15_7) AppleWebKit/537.36 (KHTML, like Gecko) Chrome/96.0.4664.110 Safari/537.36",Macintosh,Chrome,96.0.4664.110,"OS X",10_15_7,ac0f2dffeffaa78d35a552e03d03f0a8
32,3,"""",test_procedure,fixation,html-keyboard-response,103,259261,0.0-11.0-0.0-0.21,3SD15I2WEBVYX2RZ7BNPTJHHA9P63F,A2FWZR12905V6J,3PJUZCGDJFHA32WW71QZSUCIJHR98A,DZJP4,DZJP4,3PJUZCGDJFHA32WW71QZSUCIJHR98A,3PJUZCGDJFHA32WW71QZSUCIJHR98A,338054,338054,3,0.06,"""",null,null,"<div class = fixationbox><div class = fixation>+</div></div>","""","""","""","""","""","""","""","""","2021-12-31 05:22:17",75.11.200.54,"Mozilla/5.0 (Macintosh; Intel Mac OS X 10_15_7) AppleWebKit/537.36 (KHTML, like Gecko) Chrome/96.0.4664.110 Safari/537.36",Macintosh,Chrome,96.0.4664.110,"OS X",10_15_7,ac0f2dffeffaa78d35a552e03d03f0a8
32,3,"""",test_procedure,stim_test,canvas-button-response,104,260292,0.0-11.0-0.0-1.21,3SD15I2WEBVYX2RZ7BNPTJHHA9P63F,A2FWZR12905V6J,3PJUZCGDJFHA32WW71QZSUCIJHR98A,DZJP4,DZJP4,3PJUZCGDJFHA32WW71QZSUCIJHR98A,3PJUZCGDJFHA32WW71QZSUCIJHR98A,338054,338054,3,0.06,"""",992,1,catchStim5,1,Clockwise,true,"""",0.3,60,0.6,"""","2021-12-31 05:22:17",75.11.200.54,"Mozilla/5.0 (Macintosh; Intel Mac OS X 10_15_7) AppleWebKit/537.36 (KHTML, like Gecko) Chrome/96.0.4664.110 Safari/537.36",Macintosh,Chrome,96.0.4664.110,"OS X",10_15_7,ac0f2dffeffaa78d35a552e03d03f0a8
32,3,"""",test_procedure,confidence_rating,html-slider-response,105,261487,0.0-11.0-0.0-2.21,3SD15I2WEBVYX2RZ7BNPTJHHA9P63F,A2FWZR12905V6J,3PJUZCGDJFHA32WW71QZSUCIJHR98A,DZJP4,DZJP4,3PJUZCGDJFHA32WW71QZSUCIJHR98A,3PJUZCGDJFHA32WW71QZSUCIJHR98A,338054,338054,3,0.06,"""",1194.3999999761581,91,"<div id=""message-div""><p>How confident are you that your clockwise/counter-clockwise response just now was accurate? Please rate your confidence on the slider bar below.</p></div>","""","""","""",50,"""","""","""",91,"2021-12-31 05:22:17",75.11.200.54,"Mozilla/5.0 (Macintosh; Intel Mac OS X 10_15_7) AppleWebKit/537.36 (KHTML, like Gecko) Chrome/96.0.4664.110 Safari/537.36",Macintosh,Chrome,96.0.4664.110,"OS X",10_15_7,ac0f2dffeffaa78d35a552e03d03f0a8
32,3,"""",test_procedure,fixation,html-keyboard-response,106,261989,0.0-11.0-0.0-0.22,3SD15I2WEBVYX2RZ7BNPTJHHA9P63F,A2FWZR12905V6J,3PJUZCGDJFHA32WW71QZSUCIJHR98A,DZJP4,DZJP4,3PJUZCGDJFHA32WW71QZSUCIJHR98A,3PJUZCGDJFHA32WW71QZSUCIJHR98A,338054,338054,3,0.06,"""",null,null,"<div class = fixationbox><div class = fixation>+</div></div>","""","""","""","""","""","""","""","""","2021-12-31 05:22:17",75.11.200.54,"Mozilla/5.0 (Macintosh; Intel Mac OS X 10_15_7) AppleWebKit/537.36 (KHTML, like Gecko) Chrome/96.0.4664.110 Safari/537.36",Macintosh,Chrome,96.0.4664.110,"OS X",10_15_7,ac0f2dffeffaa78d35a552e03d03f0a8
32,3,"""",test_procedure,stim_test,canvas-button-response,107,263073,0.0-11.0-0.0-1.22,3SD15I2WEBVYX2RZ7BNPTJHHA9P63F,A2FWZR12905V6J,3PJUZCGDJFHA32WW71QZSUCIJHR98A,DZJP4,DZJP4,3PJUZCGDJFHA32WW71QZSUCIJHR98A,3PJUZCGDJFHA32WW71QZSUCIJHR98A,338054,338054,3,0.06,"""",1032.5,0,catchStim3,1,Clockwise,false,"""",0.01,60,0.001,"""","2021-12-31 05:22:17",75.11.200.54,"Mozilla/5.0 (Macintosh; Intel Mac OS X 10_15_7) AppleWebKit/537.36 (KHTML, like Gecko) Chrome/96.0.4664.110 Safari/537.36",Macintosh,Chrome,96.0.4664.110,"OS X",10_15_7,ac0f2dffeffaa78d35a552e03d03f0a8
32,3,"""",test_procedure,confidence_rating,html-slider-response,108,264923,0.0-11.0-0.0-2.22,3SD15I2WEBVYX2RZ7BNPTJHHA9P63F,A2FWZR12905V6J,3PJUZCGDJFHA32WW71QZSUCIJHR98A,DZJP4,DZJP4,3PJUZCGDJFHA32WW71QZSUCIJHR98A,3PJUZCGDJFHA32WW71QZSUCIJHR98A,338054,338054,3,0.06,"""",1844.7000000178814,24,"<div id=""message-div""><p>How confident are you that your clockwise/counter-clockwise response just now was accurate? Please rate your confidence on the slider bar below.</p></div>","""","""","""",50,"""","""","""",24,"2021-12-31 05:22:17",75.11.200.54,"Mozilla/5.0 (Macintosh; Intel Mac OS X 10_15_7) AppleWebKit/537.36 (KHTML, like Gecko) Chrome/96.0.4664.110 Safari/537.36",Macintosh,Chrome,96.0.4664.110,"OS X",10_15_7,ac0f2dffeffaa78d35a552e03d03f0a8
32,3,"""",test_procedure,fixation,html-keyboard-response,109,265424,0.0-11.0-0.0-0.23,3SD15I2WEBVYX2RZ7BNPTJHHA9P63F,A2FWZR12905V6J,3PJUZCGDJFHA32WW71QZSUCIJHR98A,DZJP4,DZJP4,3PJUZCGDJFHA32WW71QZSUCIJHR98A,3PJUZCGDJFHA32WW71QZSUCIJHR98A,338054,338054,3,0.06,"""",null,null,"<div class = fixationbox><div class = fixation>+</div></div>","""","""","""","""","""","""","""","""","2021-12-31 05:22:17",75.11.200.54,"Mozilla/5.0 (Macintosh; Intel Mac OS X 10_15_7) AppleWebKit/537.36 (KHTML, like Gecko) Chrome/96.0.4664.110 Safari/537.36",Macintosh,Chrome,96.0.4664.110,"OS X",10_15_7,ac0f2dffeffaa78d35a552e03d03f0a8
32,3,"""",test_procedure,stim_test,canvas-button-response,110,266401,0.0-11.0-0.0-1.23,3SD15I2WEBVYX2RZ7BNPTJHHA9P63F,A2FWZR12905V6J,3PJUZCGDJFHA32WW71QZSUCIJHR98A,DZJP4,DZJP4,3PJUZCGDJFHA32WW71QZSUCIJHR98A,3PJUZCGDJFHA32WW71QZSUCIJHR98A,338054,338054,3,0.06,"""",937.5999999940395,1,stim1,1,Clockwise,true,"""",0.01,60,"""","""","2021-12-31 05:22:17",75.11.200.54,"Mozilla/5.0 (Macintosh; Intel Mac OS X 10_15_7) AppleWebKit/537.36 (KHTML, like Gecko) Chrome/96.0.4664.110 Safari/537.36",Macintosh,Chrome,96.0.4664.110,"OS X",10_15_7,ac0f2dffeffaa78d35a552e03d03f0a8
32,3,"""",test_procedure,confidence_rating,html-slider-response,111,267597,0.0-11.0-0.0-2.23,3SD15I2WEBVYX2RZ7BNPTJHHA9P63F,A2FWZR12905V6J,3PJUZCGDJFHA32WW71QZSUCIJHR98A,DZJP4,DZJP4,3PJUZCGDJFHA32WW71QZSUCIJHR98A,3PJUZCGDJFHA32WW71QZSUCIJHR98A,338054,338054,3,0.06,"""",1194.8999999761581,83,"<div id=""message-div""><p>How confident are you that your clockwise/counter-clockwise response just now was accurate? Please rate your confidence on the slider bar below.</p></div>","""","""","""",50,"""","""","""",83,"2021-12-31 05:22:17",75.11.200.54,"Mozilla/5.0 (Macintosh; Intel Mac OS X 10_15_7) AppleWebKit/537.36 (KHTML, like Gecko) Chrome/96.0.4664.110 Safari/537.36",Macintosh,Chrome,96.0.4664.110,"OS X",10_15_7,ac0f2dffeffaa78d35a552e03d03f0a8
32,3,"""",test_procedure,rest_block,html-button-response,112,271922,0.0-11.0-0.0-3.23-0.23,3SD15I2WEBVYX2RZ7BNPTJHHA9P63F,A2FWZR12905V6J,3PJUZCGDJFHA32WW71QZSUCIJHR98A,DZJP4,DZJP4,3PJUZCGDJFHA32WW71QZSUCIJHR98A,3PJUZCGDJFHA32WW71QZSUCIJHR98A,338054,338054,3,0.06,"""",4323.199999988079,0,"[""<p>You responded correctly on 62.50% of the trials in the previous section.</p><p>Time to take a break!</p><p>Once you're ready, press the \"Continue\" button to continue.</p>""]","""","""","""","""","""","""","""","""","2021-12-31 05:22:17",75.11.200.54,"Mozilla/5.0 (Macintosh; Intel Mac OS X 10_15_7) AppleWebKit/537.36 (KHTML, like Gecko) Chrome/96.0.4664.110 Safari/537.36",Macintosh,Chrome,96.0.4664.110,"OS X",10_15_7,ac0f2dffeffaa78d35a552e03d03f0a8
32,3,"""",test_procedure,fixation,html-keyboard-response,113,272435,0.0-11.0-0.1-0.24,3SD15I2WEBVYX2RZ7BNPTJHHA9P63F,A2FWZR12905V6J,3PJUZCGDJFHA32WW71QZSUCIJHR98A,DZJP4,DZJP4,3PJUZCGDJFHA32WW71QZSUCIJHR98A,3PJUZCGDJFHA32WW71QZSUCIJHR98A,338054,338054,3,0.06,"""",null,null,"<div class = fixationbox><div class = fixation>+</div></div>","""","""","""","""","""","""","""","""","2021-12-31 05:22:17",75.11.200.54,"Mozilla/5.0 (Macintosh; Intel Mac OS X 10_15_7) AppleWebKit/537.36 (KHTML, like Gecko) Chrome/96.0.4664.110 Safari/537.36",Macintosh,Chrome,96.0.4664.110,"OS X",10_15_7,ac0f2dffeffaa78d35a552e03d03f0a8
32,3,"""",test_procedure,stim_test,canvas-button-response,114,273635,0.0-11.0-0.1-1.24,3SD15I2WEBVYX2RZ7BNPTJHHA9P63F,A2FWZR12905V6J,3PJUZCGDJFHA32WW71QZSUCIJHR98A,DZJP4,DZJP4,3PJUZCGDJFHA32WW71QZSUCIJHR98A,3PJUZCGDJFHA32WW71QZSUCIJHR98A,338054,338054,3,0.06,"""",1118.699999988079,1,stim3,1,Clockwise,true,"""",0.3,60,"""","""","2021-12-31 05:22:17",75.11.200.54,"Mozilla/5.0 (Macintosh; Intel Mac OS X 10_15_7) AppleWebKit/537.36 (KHTML, like Gecko) Chrome/96.0.4664.110 Safari/537.36",Macintosh,Chrome,96.0.4664.110,"OS X",10_15_7,ac0f2dffeffaa78d35a552e03d03f0a8
32,3,"""",test_procedure,confidence_rating,html-slider-response,115,274952,0.0-11.0-0.1-2.24,3SD15I2WEBVYX2RZ7BNPTJHHA9P63F,A2FWZR12905V6J,3PJUZCGDJFHA32WW71QZSUCIJHR98A,DZJP4,DZJP4,3PJUZCGDJFHA32WW71QZSUCIJHR98A,3PJUZCGDJFHA32WW71QZSUCIJHR98A,338054,338054,3,0.06,"""",1316.199999988079,78,"<div id=""message-div""><p>How confident are you that your clockwise/counter-clockwise response just now was accurate? Please rate your confidence on the slider bar below.</p></div>","""","""","""",50,"""","""","""",78,"2021-12-31 05:22:17",75.11.200.54,"Mozilla/5.0 (Macintosh; Intel Mac OS X 10_15_7) AppleWebKit/537.36 (KHTML, like Gecko) Chrome/96.0.4664.110 Safari/537.36",Macintosh,Chrome,96.0.4664.110,"OS X",10_15_7,ac0f2dffeffaa78d35a552e03d03f0a8
32,3,"""",test_procedure,fixation,html-keyboard-response,116,275453,0.0-11.0-0.1-0.25,3SD15I2WEBVYX2RZ7BNPTJHHA9P63F,A2FWZR12905V6J,3PJUZCGDJFHA32WW71QZSUCIJHR98A,DZJP4,DZJP4,3PJUZCGDJFHA32WW71QZSUCIJHR98A,3PJUZCGDJFHA32WW71QZSUCIJHR98A,338054,338054,3,0.06,"""",null,null,"<div class = fixationbox><div class = fixation>+</div></div>","""","""","""","""","""","""","""","""","2021-12-31 05:22:17",75.11.200.54,"Mozilla/5.0 (Macintosh; Intel Mac OS X 10_15_7) AppleWebKit/537.36 (KHTML, like Gecko) Chrome/96.0.4664.110 Safari/537.36",Macintosh,Chrome,96.0.4664.110,"OS X",10_15_7,ac0f2dffeffaa78d35a552e03d03f0a8
32,3,"""",test_procedure,stim_test,canvas-button-response,117,276915,0.0-11.0-0.1-1.25,3SD15I2WEBVYX2RZ7BNPTJHHA9P63F,A2FWZR12905V6J,3PJUZCGDJFHA32WW71QZSUCIJHR98A,DZJP4,DZJP4,3PJUZCGDJFHA32WW71QZSUCIJHR98A,3PJUZCGDJFHA32WW71QZSUCIJHR98A,338054,338054,3,0.06,"""",1420.0999999940395,0,stim2,0,Counter-clockwise,true,"""",0.01,120,"""","""","2021-12-31 05:22:17",75.11.200.54,"Mozilla/5.0 (Macintosh; Intel Mac OS X 10_15_7) AppleWebKit/537.36 (KHTML, like Gecko) Chrome/96.0.4664.110 Safari/537.36",Macintosh,Chrome,96.0.4664.110,"OS X",10_15_7,ac0f2dffeffaa78d35a552e03d03f0a8
32,3,"""",test_procedure,confidence_rating,html-slider-response,118,278660,0.0-11.0-0.1-2.25,3SD15I2WEBVYX2RZ7BNPTJHHA9P63F,A2FWZR12905V6J,3PJUZCGDJFHA32WW71QZSUCIJHR98A,DZJP4,DZJP4,3PJUZCGDJFHA32WW71QZSUCIJHR98A,3PJUZCGDJFHA32WW71QZSUCIJHR98A,338054,338054,3,0.06,"""",1744.5,14,"<div id=""message-div""><p>How confident are you that your clockwise/counter-clockwise response just now was accurate? Please rate your confidence on the slider bar below.</p></div>","""","""","""",50,"""","""","""",14,"2021-12-31 05:22:17",75.11.200.54,"Mozilla/5.0 (Macintosh; Intel Mac OS X 10_15_7) AppleWebKit/537.36 (KHTML, like Gecko) Chrome/96.0.4664.110 Safari/537.36",Macintosh,Chrome,96.0.4664.110,"OS X",10_15_7,ac0f2dffeffaa78d35a552e03d03f0a8
32,3,"""",test_procedure,fixation,html-keyboard-response,119,279164,0.0-11.0-0.1-0.26,3SD15I2WEBVYX2RZ7BNPTJHHA9P63F,A2FWZR12905V6J,3PJUZCGDJFHA32WW71QZSUCIJHR98A,DZJP4,DZJP4,3PJUZCGDJFHA32WW71QZSUCIJHR98A,3PJUZCGDJFHA32WW71QZSUCIJHR98A,338054,338054,3,0.06,"""",null,null,"<div class = fixationbox><div class = fixation>+</div></div>","""","""","""","""","""","""","""","""","2021-12-31 05:22:17",75.11.200.54,"Mozilla/5.0 (Macintosh; Intel Mac OS X 10_15_7) AppleWebKit/537.36 (KHTML, like Gecko) Chrome/96.0.4664.110 Safari/537.36",Macintosh,Chrome,96.0.4664.110,"OS X",10_15_7,ac0f2dffeffaa78d35a552e03d03f0a8
32,3,"""",test_procedure,stim_test,canvas-button-response,120,280156,0.0-11.0-0.1-1.26,3SD15I2WEBVYX2RZ7BNPTJHHA9P63F,A2FWZR12905V6J,3PJUZCGDJFHA32WW71QZSUCIJHR98A,DZJP4,DZJP4,3PJUZCGDJFHA32WW71QZSUCIJHR98A,3PJUZCGDJFHA32WW71QZSUCIJHR98A,338054,338054,3,0.06,"""",954.9000000059605,1,stim1,1,Clockwise,true,"""",0.01,60,"""","""","2021-12-31 05:22:17",75.11.200.54,"Mozilla/5.0 (Macintosh; Intel Mac OS X 10_15_7) AppleWebKit/537.36 (KHTML, like Gecko) Chrome/96.0.4664.110 Safari/537.36",Macintosh,Chrome,96.0.4664.110,"OS X",10_15_7,ac0f2dffeffaa78d35a552e03d03f0a8
32,3,"""",test_procedure,confidence_rating,html-slider-response,121,281466,0.0-11.0-0.1-2.26,3SD15I2WEBVYX2RZ7BNPTJHHA9P63F,A2FWZR12905V6J,3PJUZCGDJFHA32WW71QZSUCIJHR98A,DZJP4,DZJP4,3PJUZCGDJFHA32WW71QZSUCIJHR98A,3PJUZCGDJFHA32WW71QZSUCIJHR98A,338054,338054,3,0.06,"""",1308.7000000178814,81,"<div id=""message-div""><p>How confident are you that your clockwise/counter-clockwise response just now was accurate? Please rate your confidence on the slider bar below.</p></div>","""","""","""",50,"""","""","""",81,"2021-12-31 05:22:17",75.11.200.54,"Mozilla/5.0 (Macintosh; Intel Mac OS X 10_15_7) AppleWebKit/537.36 (KHTML, like Gecko) Chrome/96.0.4664.110 Safari/537.36",Macintosh,Chrome,96.0.4664.110,"OS X",10_15_7,ac0f2dffeffaa78d35a552e03d03f0a8
32,3,"""",test_procedure,fixation,html-keyboard-response,122,281970,0.0-11.0-0.1-0.27,3SD15I2WEBVYX2RZ7BNPTJHHA9P63F,A2FWZR12905V6J,3PJUZCGDJFHA32WW71QZSUCIJHR98A,DZJP4,DZJP4,3PJUZCGDJFHA32WW71QZSUCIJHR98A,3PJUZCGDJFHA32WW71QZSUCIJHR98A,338054,338054,3,0.06,"""",null,null,"<div class = fixationbox><div class = fixation>+</div></div>","""","""","""","""","""","""","""","""","2021-12-31 05:22:17",75.11.200.54,"Mozilla/5.0 (Macintosh; Intel Mac OS X 10_15_7) AppleWebKit/537.36 (KHTML, like Gecko) Chrome/96.0.4664.110 Safari/537.36",Macintosh,Chrome,96.0.4664.110,"OS X",10_15_7,ac0f2dffeffaa78d35a552e03d03f0a8
32,3,"""",test_procedure,stim_test,canvas-button-response,123,283203,0.0-11.0-0.1-1.27,3SD15I2WEBVYX2RZ7BNPTJHHA9P63F,A2FWZR12905V6J,3PJUZCGDJFHA32WW71QZSUCIJHR98A,DZJP4,DZJP4,3PJUZCGDJFHA32WW71QZSUCIJHR98A,3PJUZCGDJFHA32WW71QZSUCIJHR98A,338054,338054,3,0.06,"""",1187.0999999940395,1,stim1,1,Clockwise,true,"""",0.01,60,"""","""","2021-12-31 05:22:17",75.11.200.54,"Mozilla/5.0 (Macintosh; Intel Mac OS X 10_15_7) AppleWebKit/537.36 (KHTML, like Gecko) Chrome/96.0.4664.110 Safari/537.36",Macintosh,Chrome,96.0.4664.110,"OS X",10_15_7,ac0f2dffeffaa78d35a552e03d03f0a8
32,3,"""",test_procedure,confidence_rating,html-slider-response,124,284948,0.0-11.0-0.1-2.27,3SD15I2WEBVYX2RZ7BNPTJHHA9P63F,A2FWZR12905V6J,3PJUZCGDJFHA32WW71QZSUCIJHR98A,DZJP4,DZJP4,3PJUZCGDJFHA32WW71QZSUCIJHR98A,3PJUZCGDJFHA32WW71QZSUCIJHR98A,338054,338054,3,0.06,"""",1744.5999999940395,98,"<div id=""message-div""><p>How confident are you that your clockwise/counter-clockwise response just now was accurate? Please rate your confidence on the slider bar below.</p></div>","""","""","""",50,"""","""","""",98,"2021-12-31 05:22:17",75.11.200.54,"Mozilla/5.0 (Macintosh; Intel Mac OS X 10_15_7) AppleWebKit/537.36 (KHTML, like Gecko) Chrome/96.0.4664.110 Safari/537.36",Macintosh,Chrome,96.0.4664.110,"OS X",10_15_7,ac0f2dffeffaa78d35a552e03d03f0a8
32,3,"""",test_procedure,fixation,html-keyboard-response,125,285451,0.0-11.0-0.1-0.28,3SD15I2WEBVYX2RZ7BNPTJHHA9P63F,A2FWZR12905V6J,3PJUZCGDJFHA32WW71QZSUCIJHR98A,DZJP4,DZJP4,3PJUZCGDJFHA32WW71QZSUCIJHR98A,3PJUZCGDJFHA32WW71QZSUCIJHR98A,338054,338054,3,0.06,"""",null,null,"<div class = fixationbox><div class = fixation>+</div></div>","""","""","""","""","""","""","""","""","2021-12-31 05:22:17",75.11.200.54,"Mozilla/5.0 (Macintosh; Intel Mac OS X 10_15_7) AppleWebKit/537.36 (KHTML, like Gecko) Chrome/96.0.4664.110 Safari/537.36",Macintosh,Chrome,96.0.4664.110,"OS X",10_15_7,ac0f2dffeffaa78d35a552e03d03f0a8
32,3,"""",test_procedure,stim_test,canvas-button-response,126,286314,0.0-11.0-0.1-1.28,3SD15I2WEBVYX2RZ7BNPTJHHA9P63F,A2FWZR12905V6J,3PJUZCGDJFHA32WW71QZSUCIJHR98A,DZJP4,DZJP4,3PJUZCGDJFHA32WW71QZSUCIJHR98A,3PJUZCGDJFHA32WW71QZSUCIJHR98A,338054,338054,3,0.06,"""",823.0999999940395,1,catchStim1,1,Clockwise,true,"""",0.01,60,0.6,"""","2021-12-31 05:22:17",75.11.200.54,"Mozilla/5.0 (Macintosh; Intel Mac OS X 10_15_7) AppleWebKit/537.36 (KHTML, like Gecko) Chrome/96.0.4664.110 Safari/537.36",Macintosh,Chrome,96.0.4664.110,"OS X",10_15_7,ac0f2dffeffaa78d35a552e03d03f0a8
32,3,"""",test_procedure,confidence_rating,html-slider-response,127,289855,0.0-11.0-0.1-2.28,3SD15I2WEBVYX2RZ7BNPTJHHA9P63F,A2FWZR12905V6J,3PJUZCGDJFHA32WW71QZSUCIJHR98A,DZJP4,DZJP4,3PJUZCGDJFHA32WW71QZSUCIJHR98A,3PJUZCGDJFHA32WW71QZSUCIJHR98A,338054,338054,3,0.06,"""",3540.5,100,"<div id=""message-div""><p>How confident are you that your clockwise/counter-clockwise response just now was accurate? Please rate your confidence on the slider bar below.</p></div>","""","""","""",50,"""","""","""",100,"2021-12-31 05:22:17",75.11.200.54,"Mozilla/5.0 (Macintosh; Intel Mac OS X 10_15_7) AppleWebKit/537.36 (KHTML, like Gecko) Chrome/96.0.4664.110 Safari/537.36",Macintosh,Chrome,96.0.4664.110,"OS X",10_15_7,ac0f2dffeffaa78d35a552e03d03f0a8
32,3,"""",test_procedure,fixation,html-keyboard-response,128,290357,0.0-11.0-0.1-0.29,3SD15I2WEBVYX2RZ7BNPTJHHA9P63F,A2FWZR12905V6J,3PJUZCGDJFHA32WW71QZSUCIJHR98A,DZJP4,DZJP4,3PJUZCGDJFHA32WW71QZSUCIJHR98A,3PJUZCGDJFHA32WW71QZSUCIJHR98A,338054,338054,3,0.06,"""",null,null,"<div class = fixationbox><div class = fixation>+</div></div>","""","""","""","""","""","""","""","""","2021-12-31 05:22:17",75.11.200.54,"Mozilla/5.0 (Macintosh; Intel Mac OS X 10_15_7) AppleWebKit/537.36 (KHTML, like Gecko) Chrome/96.0.4664.110 Safari/537.36",Macintosh,Chrome,96.0.4664.110,"OS X",10_15_7,ac0f2dffeffaa78d35a552e03d03f0a8
32,3,"""",test_procedure,stim_test,canvas-button-response,129,291599,0.0-11.0-0.1-1.29,3SD15I2WEBVYX2RZ7BNPTJHHA9P63F,A2FWZR12905V6J,3PJUZCGDJFHA32WW71QZSUCIJHR98A,DZJP4,DZJP4,3PJUZCGDJFHA32WW71QZSUCIJHR98A,3PJUZCGDJFHA32WW71QZSUCIJHR98A,338054,338054,3,0.06,"""",1208,0,stim4,0,Counter-clockwise,true,"""",0.3,120,"""","""","2021-12-31 05:22:17",75.11.200.54,"Mozilla/5.0 (Macintosh; Intel Mac OS X 10_15_7) AppleWebKit/537.36 (KHTML, like Gecko) Chrome/96.0.4664.110 Safari/537.36",Macintosh,Chrome,96.0.4664.110,"OS X",10_15_7,ac0f2dffeffaa78d35a552e03d03f0a8
32,3,"""",test_procedure,confidence_rating,html-slider-response,130,293669,0.0-11.0-0.1-2.29,3SD15I2WEBVYX2RZ7BNPTJHHA9P63F,A2FWZR12905V6J,3PJUZCGDJFHA32WW71QZSUCIJHR98A,DZJP4,DZJP4,3PJUZCGDJFHA32WW71QZSUCIJHR98A,3PJUZCGDJFHA32WW71QZSUCIJHR98A,338054,338054,3,0.06,"""",2066.199999988079,99,"<div id=""message-div""><p>How confident are you that your clockwise/counter-clockwise response just now was accurate? Please rate your confidence on the slider bar below.</p></div>","""","""","""",50,"""","""","""",99,"2021-12-31 05:22:17",75.11.200.54,"Mozilla/5.0 (Macintosh; Intel Mac OS X 10_15_7) AppleWebKit/537.36 (KHTML, like Gecko) Chrome/96.0.4664.110 Safari/537.36",Macintosh,Chrome,96.0.4664.110,"OS X",10_15_7,ac0f2dffeffaa78d35a552e03d03f0a8
32,3,"""",test_procedure,fixation,html-keyboard-response,131,294170,0.0-11.0-0.1-0.30,3SD15I2WEBVYX2RZ7BNPTJHHA9P63F,A2FWZR12905V6J,3PJUZCGDJFHA32WW71QZSUCIJHR98A,DZJP4,DZJP4,3PJUZCGDJFHA32WW71QZSUCIJHR98A,3PJUZCGDJFHA32WW71QZSUCIJHR98A,338054,338054,3,0.06,"""",null,null,"<div class = fixationbox><div class = fixation>+</div></div>","""","""","""","""","""","""","""","""","2021-12-31 05:22:17",75.11.200.54,"Mozilla/5.0 (Macintosh; Intel Mac OS X 10_15_7) AppleWebKit/537.36 (KHTML, like Gecko) Chrome/96.0.4664.110 Safari/537.36",Macintosh,Chrome,96.0.4664.110,"OS X",10_15_7,ac0f2dffeffaa78d35a552e03d03f0a8
32,3,"""",test_procedure,stim_test,canvas-button-response,132,295107,0.0-11.0-0.1-1.30,3SD15I2WEBVYX2RZ7BNPTJHHA9P63F,A2FWZR12905V6J,3PJUZCGDJFHA32WW71QZSUCIJHR98A,DZJP4,DZJP4,3PJUZCGDJFHA32WW71QZSUCIJHR98A,3PJUZCGDJFHA32WW71QZSUCIJHR98A,338054,338054,3,0.06,"""",904.5999999940395,1,catchStim8,0,Counter-clockwise,false,"""",0.3,120,0.001,"""","2021-12-31 05:22:17",75.11.200.54,"Mozilla/5.0 (Macintosh; Intel Mac OS X 10_15_7) AppleWebKit/537.36 (KHTML, like Gecko) Chrome/96.0.4664.110 Safari/537.36",Macintosh,Chrome,96.0.4664.110,"OS X",10_15_7,ac0f2dffeffaa78d35a552e03d03f0a8
32,3,"""",test_procedure,confidence_rating,html-slider-response,133,296561,0.0-11.0-0.1-2.30,3SD15I2WEBVYX2RZ7BNPTJHHA9P63F,A2FWZR12905V6J,3PJUZCGDJFHA32WW71QZSUCIJHR98A,DZJP4,DZJP4,3PJUZCGDJFHA32WW71QZSUCIJHR98A,3PJUZCGDJFHA32WW71QZSUCIJHR98A,338054,338054,3,0.06,"""",1453.800000011921,93,"<div id=""message-div""><p>How confident are you that your clockwise/counter-clockwise response just now was accurate? Please rate your confidence on the slider bar below.</p></div>","""","""","""",50,"""","""","""",93,"2021-12-31 05:22:17",75.11.200.54,"Mozilla/5.0 (Macintosh; Intel Mac OS X 10_15_7) AppleWebKit/537.36 (KHTML, like Gecko) Chrome/96.0.4664.110 Safari/537.36",Macintosh,Chrome,96.0.4664.110,"OS X",10_15_7,ac0f2dffeffaa78d35a552e03d03f0a8
32,3,"""",test_procedure,fixation,html-keyboard-response,134,297063,0.0-11.0-0.1-0.31,3SD15I2WEBVYX2RZ7BNPTJHHA9P63F,A2FWZR12905V6J,3PJUZCGDJFHA32WW71QZSUCIJHR98A,DZJP4,DZJP4,3PJUZCGDJFHA32WW71QZSUCIJHR98A,3PJUZCGDJFHA32WW71QZSUCIJHR98A,338054,338054,3,0.06,"""",null,null,"<div class = fixationbox><div class = fixation>+</div></div>","""","""","""","""","""","""","""","""","2021-12-31 05:22:17",75.11.200.54,"Mozilla/5.0 (Macintosh; Intel Mac OS X 10_15_7) AppleWebKit/537.36 (KHTML, like Gecko) Chrome/96.0.4664.110 Safari/537.36",Macintosh,Chrome,96.0.4664.110,"OS X",10_15_7,ac0f2dffeffaa78d35a552e03d03f0a8
32,3,"""",test_procedure,stim_test,canvas-button-response,135,298387,0.0-11.0-0.1-1.31,3SD15I2WEBVYX2RZ7BNPTJHHA9P63F,A2FWZR12905V6J,3PJUZCGDJFHA32WW71QZSUCIJHR98A,DZJP4,DZJP4,3PJUZCGDJFHA32WW71QZSUCIJHR98A,3PJUZCGDJFHA32WW71QZSUCIJHR98A,338054,338054,3,0.06,"""",1290,0,catchStim6,0,Counter-clockwise,true,"""",0.3,120,0.6,"""","2021-12-31 05:22:17",75.11.200.54,"Mozilla/5.0 (Macintosh; Intel Mac OS X 10_15_7) AppleWebKit/537.36 (KHTML, like Gecko) Chrome/96.0.4664.110 Safari/537.36",Macintosh,Chrome,96.0.4664.110,"OS X",10_15_7,ac0f2dffeffaa78d35a552e03d03f0a8
32,3,"""",test_procedure,confidence_rating,html-slider-response,136,301531,0.0-11.0-0.1-2.31,3SD15I2WEBVYX2RZ7BNPTJHHA9P63F,A2FWZR12905V6J,3PJUZCGDJFHA32WW71QZSUCIJHR98A,DZJP4,DZJP4,3PJUZCGDJFHA32WW71QZSUCIJHR98A,3PJUZCGDJFHA32WW71QZSUCIJHR98A,338054,338054,3,0.06,"""",3143,96,"<div id=""message-div""><p>How confident are you that your clockwise/counter-clockwise response just now was accurate? Please rate your confidence on the slider bar below.</p></div>","""","""","""",50,"""","""","""",96,"2021-12-31 05:22:17",75.11.200.54,"Mozilla/5.0 (Macintosh; Intel Mac OS X 10_15_7) AppleWebKit/537.36 (KHTML, like Gecko) Chrome/96.0.4664.110 Safari/537.36",Macintosh,Chrome,96.0.4664.110,"OS X",10_15_7,ac0f2dffeffaa78d35a552e03d03f0a8
32,3,"""",test_procedure,fixation,html-keyboard-response,137,302032,0.0-11.0-0.1-0.32,3SD15I2WEBVYX2RZ7BNPTJHHA9P63F,A2FWZR12905V6J,3PJUZCGDJFHA32WW71QZSUCIJHR98A,DZJP4,DZJP4,3PJUZCGDJFHA32WW71QZSUCIJHR98A,3PJUZCGDJFHA32WW71QZSUCIJHR98A,338054,338054,3,0.06,"""",null,null,"<div class = fixationbox><div class = fixation>+</div></div>","""","""","""","""","""","""","""","""","2021-12-31 05:22:17",75.11.200.54,"Mozilla/5.0 (Macintosh; Intel Mac OS X 10_15_7) AppleWebKit/537.36 (KHTML, like Gecko) Chrome/96.0.4664.110 Safari/537.36",Macintosh,Chrome,96.0.4664.110,"OS X",10_15_7,ac0f2dffeffaa78d35a552e03d03f0a8
32,3,"""",test_procedure,stim_test,canvas-button-response,138,303188,0.0-11.0-0.1-1.32,3SD15I2WEBVYX2RZ7BNPTJHHA9P63F,A2FWZR12905V6J,3PJUZCGDJFHA32WW71QZSUCIJHR98A,DZJP4,DZJP4,3PJUZCGDJFHA32WW71QZSUCIJHR98A,3PJUZCGDJFHA32WW71QZSUCIJHR98A,338054,338054,3,0.06,"""",1123.699999988079,1,catchStim5,1,Clockwise,true,"""",0.3,60,0.6,"""","2021-12-31 05:22:17",75.11.200.54,"Mozilla/5.0 (Macintosh; Intel Mac OS X 10_15_7) AppleWebKit/537.36 (KHTML, like Gecko) Chrome/96.0.4664.110 Safari/537.36",Macintosh,Chrome,96.0.4664.110,"OS X",10_15_7,ac0f2dffeffaa78d35a552e03d03f0a8
32,3,"""",test_procedure,confidence_rating,html-slider-response,139,304669,0.0-11.0-0.1-2.32,3SD15I2WEBVYX2RZ7BNPTJHHA9P63F,A2FWZR12905V6J,3PJUZCGDJFHA32WW71QZSUCIJHR98A,DZJP4,DZJP4,3PJUZCGDJFHA32WW71QZSUCIJHR98A,3PJUZCGDJFHA32WW71QZSUCIJHR98A,338054,338054,3,0.06,"""",1477.5,97,"<div id=""message-div""><p>How confident are you that your clockwise/counter-clockwise response just now was accurate? Please rate your confidence on the slider bar below.</p></div>","""","""","""",50,"""","""","""",97,"2021-12-31 05:22:17",75.11.200.54,"Mozilla/5.0 (Macintosh; Intel Mac OS X 10_15_7) AppleWebKit/537.36 (KHTML, like Gecko) Chrome/96.0.4664.110 Safari/537.36",Macintosh,Chrome,96.0.4664.110,"OS X",10_15_7,ac0f2dffeffaa78d35a552e03d03f0a8
32,3,"""",test_procedure,fixation,html-keyboard-response,140,305170,0.0-11.0-0.1-0.33,3SD15I2WEBVYX2RZ7BNPTJHHA9P63F,A2FWZR12905V6J,3PJUZCGDJFHA32WW71QZSUCIJHR98A,DZJP4,DZJP4,3PJUZCGDJFHA32WW71QZSUCIJHR98A,3PJUZCGDJFHA32WW71QZSUCIJHR98A,338054,338054,3,0.06,"""",null,null,"<div class = fixationbox><div class = fixation>+</div></div>","""","""","""","""","""","""","""","""","2021-12-31 05:22:17",75.11.200.54,"Mozilla/5.0 (Macintosh; Intel Mac OS X 10_15_7) AppleWebKit/537.36 (KHTML, like Gecko) Chrome/96.0.4664.110 Safari/537.36",Macintosh,Chrome,96.0.4664.110,"OS X",10_15_7,ac0f2dffeffaa78d35a552e03d03f0a8
32,3,"""",test_procedure,stim_test,canvas-button-response,141,306728,0.0-11.0-0.1-1.33,3SD15I2WEBVYX2RZ7BNPTJHHA9P63F,A2FWZR12905V6J,3PJUZCGDJFHA32WW71QZSUCIJHR98A,DZJP4,DZJP4,3PJUZCGDJFHA32WW71QZSUCIJHR98A,3PJUZCGDJFHA32WW71QZSUCIJHR98A,338054,338054,3,0.06,"""",1516.199999988079,0,stim3,1,Clockwise,false,"""",0.3,60,"""","""","2021-12-31 05:22:17",75.11.200.54,"Mozilla/5.0 (Macintosh; Intel Mac OS X 10_15_7) AppleWebKit/537.36 (KHTML, like Gecko) Chrome/96.0.4664.110 Safari/537.36",Macintosh,Chrome,96.0.4664.110,"OS X",10_15_7,ac0f2dffeffaa78d35a552e03d03f0a8
32,3,"""",test_procedure,confidence_rating,html-slider-response,142,308191,0.0-11.0-0.1-2.33,3SD15I2WEBVYX2RZ7BNPTJHHA9P63F,A2FWZR12905V6J,3PJUZCGDJFHA32WW71QZSUCIJHR98A,DZJP4,DZJP4,3PJUZCGDJFHA32WW71QZSUCIJHR98A,3PJUZCGDJFHA32WW71QZSUCIJHR98A,338054,338054,3,0.06,"""",1461.800000011921,20,"<div id=""message-div""><p>How confident are you that your clockwise/counter-clockwise response just now was accurate? Please rate your confidence on the slider bar below.</p></div>","""","""","""",50,"""","""","""",20,"2021-12-31 05:22:17",75.11.200.54,"Mozilla/5.0 (Macintosh; Intel Mac OS X 10_15_7) AppleWebKit/537.36 (KHTML, like Gecko) Chrome/96.0.4664.110 Safari/537.36",Macintosh,Chrome,96.0.4664.110,"OS X",10_15_7,ac0f2dffeffaa78d35a552e03d03f0a8
32,3,"""",test_procedure,fixation,html-keyboard-response,143,308693,0.0-11.0-0.1-0.34,3SD15I2WEBVYX2RZ7BNPTJHHA9P63F,A2FWZR12905V6J,3PJUZCGDJFHA32WW71QZSUCIJHR98A,DZJP4,DZJP4,3PJUZCGDJFHA32WW71QZSUCIJHR98A,3PJUZCGDJFHA32WW71QZSUCIJHR98A,338054,338054,3,0.06,"""",null,null,"<div class = fixationbox><div class = fixation>+</div></div>","""","""","""","""","""","""","""","""","2021-12-31 05:22:17",75.11.200.54,"Mozilla/5.0 (Macintosh; Intel Mac OS X 10_15_7) AppleWebKit/537.36 (KHTML, like Gecko) Chrome/96.0.4664.110 Safari/537.36",Macintosh,Chrome,96.0.4664.110,"OS X",10_15_7,ac0f2dffeffaa78d35a552e03d03f0a8
32,3,"""",test_procedure,stim_test,canvas-button-response,144,309638,0.0-11.0-0.1-1.34,3SD15I2WEBVYX2RZ7BNPTJHHA9P63F,A2FWZR12905V6J,3PJUZCGDJFHA32WW71QZSUCIJHR98A,DZJP4,DZJP4,3PJUZCGDJFHA32WW71QZSUCIJHR98A,3PJUZCGDJFHA32WW71QZSUCIJHR98A,338054,338054,3,0.06,"""",909.5999999940395,1,stim1,1,Clockwise,true,"""",0.01,60,"""","""","2021-12-31 05:22:17",75.11.200.54,"Mozilla/5.0 (Macintosh; Intel Mac OS X 10_15_7) AppleWebKit/537.36 (KHTML, like Gecko) Chrome/96.0.4664.110 Safari/537.36",Macintosh,Chrome,96.0.4664.110,"OS X",10_15_7,ac0f2dffeffaa78d35a552e03d03f0a8
32,3,"""",test_procedure,confidence_rating,html-slider-response,145,311011,0.0-11.0-0.1-2.34,3SD15I2WEBVYX2RZ7BNPTJHHA9P63F,A2FWZR12905V6J,3PJUZCGDJFHA32WW71QZSUCIJHR98A,DZJP4,DZJP4,3PJUZCGDJFHA32WW71QZSUCIJHR98A,3PJUZCGDJFHA32WW71QZSUCIJHR98A,338054,338054,3,0.06,"""",1369.199999988079,97,"<div id=""message-div""><p>How confident are you that your clockwise/counter-clockwise response just now was accurate? Please rate your confidence on the slider bar below.</p></div>","""","""","""",50,"""","""","""",97,"2021-12-31 05:22:17",75.11.200.54,"Mozilla/5.0 (Macintosh; Intel Mac OS X 10_15_7) AppleWebKit/537.36 (KHTML, like Gecko) Chrome/96.0.4664.110 Safari/537.36",Macintosh,Chrome,96.0.4664.110,"OS X",10_15_7,ac0f2dffeffaa78d35a552e03d03f0a8
32,3,"""",test_procedure,fixation,html-keyboard-response,146,311513,0.0-11.0-0.1-0.35,3SD15I2WEBVYX2RZ7BNPTJHHA9P63F,A2FWZR12905V6J,3PJUZCGDJFHA32WW71QZSUCIJHR98A,DZJP4,DZJP4,3PJUZCGDJFHA32WW71QZSUCIJHR98A,3PJUZCGDJFHA32WW71QZSUCIJHR98A,338054,338054,3,0.06,"""",null,null,"<div class = fixationbox><div class = fixation>+</div></div>","""","""","""","""","""","""","""","""","2021-12-31 05:22:17",75.11.200.54,"Mozilla/5.0 (Macintosh; Intel Mac OS X 10_15_7) AppleWebKit/537.36 (KHTML, like Gecko) Chrome/96.0.4664.110 Safari/537.36",Macintosh,Chrome,96.0.4664.110,"OS X",10_15_7,ac0f2dffeffaa78d35a552e03d03f0a8
32,3,"""",test_procedure,stim_test,canvas-button-response,147,313080,0.0-11.0-0.1-1.35,3SD15I2WEBVYX2RZ7BNPTJHHA9P63F,A2FWZR12905V6J,3PJUZCGDJFHA32WW71QZSUCIJHR98A,DZJP4,DZJP4,3PJUZCGDJFHA32WW71QZSUCIJHR98A,3PJUZCGDJFHA32WW71QZSUCIJHR98A,338054,338054,3,0.06,"""",1530.2000000178814,1,catchStim4,0,Counter-clockwise,false,"""",0.01,120,0.001,"""","2021-12-31 05:22:17",75.11.200.54,"Mozilla/5.0 (Macintosh; Intel Mac OS X 10_15_7) AppleWebKit/537.36 (KHTML, like Gecko) Chrome/96.0.4664.110 Safari/537.36",Macintosh,Chrome,96.0.4664.110,"OS X",10_15_7,ac0f2dffeffaa78d35a552e03d03f0a8
32,3,"""",test_procedure,confidence_rating,html-slider-response,148,314866,0.0-11.0-0.1-2.35,3SD15I2WEBVYX2RZ7BNPTJHHA9P63F,A2FWZR12905V6J,3PJUZCGDJFHA32WW71QZSUCIJHR98A,DZJP4,DZJP4,3PJUZCGDJFHA32WW71QZSUCIJHR98A,3PJUZCGDJFHA32WW71QZSUCIJHR98A,338054,338054,3,0.06,"""",1785.300000011921,32,"<div id=""message-div""><p>How confident are you that your clockwise/counter-clockwise response just now was accurate? Please rate your confidence on the slider bar below.</p></div>","""","""","""",50,"""","""","""",32,"2021-12-31 05:22:17",75.11.200.54,"Mozilla/5.0 (Macintosh; Intel Mac OS X 10_15_7) AppleWebKit/537.36 (KHTML, like Gecko) Chrome/96.0.4664.110 Safari/537.36",Macintosh,Chrome,96.0.4664.110,"OS X",10_15_7,ac0f2dffeffaa78d35a552e03d03f0a8
32,3,"""",test_procedure,fixation,html-keyboard-response,149,315368,0.0-11.0-0.1-0.36,3SD15I2WEBVYX2RZ7BNPTJHHA9P63F,A2FWZR12905V6J,3PJUZCGDJFHA32WW71QZSUCIJHR98A,DZJP4,DZJP4,3PJUZCGDJFHA32WW71QZSUCIJHR98A,3PJUZCGDJFHA32WW71QZSUCIJHR98A,338054,338054,3,0.06,"""",null,null,"<div class = fixationbox><div class = fixation>+</div></div>","""","""","""","""","""","""","""","""","2021-12-31 05:22:17",75.11.200.54,"Mozilla/5.0 (Macintosh; Intel Mac OS X 10_15_7) AppleWebKit/537.36 (KHTML, like Gecko) Chrome/96.0.4664.110 Safari/537.36",Macintosh,Chrome,96.0.4664.110,"OS X",10_15_7,ac0f2dffeffaa78d35a552e03d03f0a8
32,3,"""",test_procedure,stim_test,canvas-button-response,150,316240,0.0-11.0-0.1-1.36,3SD15I2WEBVYX2RZ7BNPTJHHA9P63F,A2FWZR12905V6J,3PJUZCGDJFHA32WW71QZSUCIJHR98A,DZJP4,DZJP4,3PJUZCGDJFHA32WW71QZSUCIJHR98A,3PJUZCGDJFHA32WW71QZSUCIJHR98A,338054,338054,3,0.06,"""",834.9000000059605,1,stim3,1,Clockwise,true,"""",0.3,60,"""","""","2021-12-31 05:22:17",75.11.200.54,"Mozilla/5.0 (Macintosh; Intel Mac OS X 10_15_7) AppleWebKit/537.36 (KHTML, like Gecko) Chrome/96.0.4664.110 Safari/537.36",Macintosh,Chrome,96.0.4664.110,"OS X",10_15_7,ac0f2dffeffaa78d35a552e03d03f0a8
32,3,"""",test_procedure,confidence_rating,html-slider-response,151,317663,0.0-11.0-0.1-2.36,3SD15I2WEBVYX2RZ7BNPTJHHA9P63F,A2FWZR12905V6J,3PJUZCGDJFHA32WW71QZSUCIJHR98A,DZJP4,DZJP4,3PJUZCGDJFHA32WW71QZSUCIJHR98A,3PJUZCGDJFHA32WW71QZSUCIJHR98A,338054,338054,3,0.06,"""",1421.5999999940395,94,"<div id=""message-div""><p>How confident are you that your clockwise/counter-clockwise response just now was accurate? Please rate your confidence on the slider bar below.</p></div>","""","""","""",50,"""","""","""",94,"2021-12-31 05:22:17",75.11.200.54,"Mozilla/5.0 (Macintosh; Intel Mac OS X 10_15_7) AppleWebKit/537.36 (KHTML, like Gecko) Chrome/96.0.4664.110 Safari/537.36",Macintosh,Chrome,96.0.4664.110,"OS X",10_15_7,ac0f2dffeffaa78d35a552e03d03f0a8
32,3,"""",test_procedure,fixation,html-keyboard-response,152,318165,0.0-11.0-0.1-0.37,3SD15I2WEBVYX2RZ7BNPTJHHA9P63F,A2FWZR12905V6J,3PJUZCGDJFHA32WW71QZSUCIJHR98A,DZJP4,DZJP4,3PJUZCGDJFHA32WW71QZSUCIJHR98A,3PJUZCGDJFHA32WW71QZSUCIJHR98A,338054,338054,3,0.06,"""",null,null,"<div class = fixationbox><div class = fixation>+</div></div>","""","""","""","""","""","""","""","""","2021-12-31 05:22:17",75.11.200.54,"Mozilla/5.0 (Macintosh; Intel Mac OS X 10_15_7) AppleWebKit/537.36 (KHTML, like Gecko) Chrome/96.0.4664.110 Safari/537.36",Macintosh,Chrome,96.0.4664.110,"OS X",10_15_7,ac0f2dffeffaa78d35a552e03d03f0a8
32,3,"""",test_procedure,stim_test,canvas-button-response,153,319222,0.0-11.0-0.1-1.37,3SD15I2WEBVYX2RZ7BNPTJHHA9P63F,A2FWZR12905V6J,3PJUZCGDJFHA32WW71QZSUCIJHR98A,DZJP4,DZJP4,3PJUZCGDJFHA32WW71QZSUCIJHR98A,3PJUZCGDJFHA32WW71QZSUCIJHR98A,338054,338054,3,0.06,"""",1019.5999999940395,1,stim4,0,Counter-clockwise,false,"""",0.3,120,"""","""","2021-12-31 05:22:17",75.11.200.54,"Mozilla/5.0 (Macintosh; Intel Mac OS X 10_15_7) AppleWebKit/537.36 (KHTML, like Gecko) Chrome/96.0.4664.110 Safari/537.36",Macintosh,Chrome,96.0.4664.110,"OS X",10_15_7,ac0f2dffeffaa78d35a552e03d03f0a8
