run_id,condition,success,exp_stage,trial_id,trial_type,trial_index,time_elapsed,internal_node_id,hitId,workerId,assignmentId,a,tp_a,b,tp_b,c,tp_c,conditionmyown,cen_signal_contrast_stim,view_history,rt,response,stimulus,correct_response,correct_response_in_clockwise_or_counterclockwise,correct,slider_start,ctx_signal_contrast,cen_angle_in_degree,cen_signal_contrast_catchStim,confidence,recorded_at,ip,user_agent,device,browser,browser_version,platform,platform_version,source_code_version
31,1,true,pre-exp,fullscreen_starts,fullscreen,0,4525,0.0-0.0,3PKVGQTFJQLSZOM7OKJDU84QFXXYRA,A122LRCSBAD6DC,33LKR6A5KNLBCHLP6MM14KQMZIO1TI,5RL34,5RL34,33LKR6A5KNLBCHLP6MM14KQMZIO1TI,33LKR6A5KNLBCHLP6MM14KQMZIO1TI,338054,338054,1,0.03,"""","""","""","""","""","""","""","""","""","""","""","""","2021-12-31 05:11:20",174.48.147.189,"Mozilla/5.0 (Windows NT 10.0; Win64; x64) AppleWebKit/537.36 (KHTML, like Gecko) Chrome/96.0.4664.110 Safari/537.36",WebKit,Chrome,96.0.4664.110,Windows,10.0,ac0f2dffeffaa78d35a552e03d03f0a8
31,1,"""",pre-exp,instructionspage1,instructions,1,6468,0.0-1.0-0.0,3PKVGQTFJQLSZOM7OKJDU84QFXXYRA,A122LRCSBAD6DC,33LKR6A5KNLBCHLP6MM14KQMZIO1TI,5RL34,5RL34,33LKR6A5KNLBCHLP6MM14KQMZIO1TI,33LKR6A5KNLBCHLP6MM14KQMZIO1TI,338054,338054,1,0.03,"[{""page_index"":0,""viewing_time"":1939.9000000953674}]",1940.1000001430511,"""","""","""","""","""","""","""","""","""","""","2021-12-31 05:11:20",174.48.147.189,"Mozilla/5.0 (Windows NT 10.0; Win64; x64) AppleWebKit/537.36 (KHTML, like Gecko) Chrome/96.0.4664.110 Safari/537.36",WebKit,Chrome,96.0.4664.110,Windows,10.0,ac0f2dffeffaa78d35a552e03d03f0a8
31,1,"""",pre-exp,instructions_block2,canvas-button-response,2,31605,0.0-2.0-0.0-0.0,3PKVGQTFJQLSZOM7OKJDU84QFXXYRA,A122LRCSBAD6DC,33LKR6A5KNLBCHLP6MM14KQMZIO1TI,5RL34,5RL34,33LKR6A5KNLBCHLP6MM14KQMZIO1TI,33LKR6A5KNLBCHLP6MM14KQMZIO1TI,338054,338054,1,0.03,"""",25041.200000047684,0,instructionStim1,1,Clockwise,false,"""","""","""","""","""","2021-12-31 05:11:20",174.48.147.189,"Mozilla/5.0 (Windows NT 10.0; Win64; x64) AppleWebKit/537.36 (KHTML, like Gecko) Chrome/96.0.4664.110 Safari/537.36",WebKit,Chrome,96.0.4664.110,Windows,10.0,ac0f2dffeffaa78d35a552e03d03f0a8
31,1,"""",pre-exp,repeat_instructions_block2_message,html-button-response,3,33357,0.0-2.0-1.0-0.0,3PKVGQTFJQLSZOM7OKJDU84QFXXYRA,A122LRCSBAD6DC,33LKR6A5KNLBCHLP6MM14KQMZIO1TI,5RL34,5RL34,33LKR6A5KNLBCHLP6MM14KQMZIO1TI,33LKR6A5KNLBCHLP6MM14KQMZIO1TI,338054,338054,1,0.03,"""",1749.4000000953674,0,"<div id=""message-div""><p>You should have pressed the <b>""Clockwise""</b> button.</p><p>Please try again.</p></div>","""","""","""","""","""","""","""","""","2021-12-31 05:11:20",174.48.147.189,"Mozilla/5.0 (Windows NT 10.0; Win64; x64) AppleWebKit/537.36 (KHTML, like Gecko) Chrome/96.0.4664.110 Safari/537.36",WebKit,Chrome,96.0.4664.110,Windows,10.0,ac0f2dffeffaa78d35a552e03d03f0a8
31,1,"""",pre-exp,instructions_block2,canvas-button-response,4,35756,0.0-2.1-0.1-0.1,3PKVGQTFJQLSZOM7OKJDU84QFXXYRA,A122LRCSBAD6DC,33LKR6A5KNLBCHLP6MM14KQMZIO1TI,5RL34,5RL34,33LKR6A5KNLBCHLP6MM14KQMZIO1TI,33LKR6A5KNLBCHLP6MM14KQMZIO1TI,338054,338054,1,0.03,"""",2324,1,instructionStim1,1,Clockwise,true,"""","""","""","""","""","2021-12-31 05:11:20",174.48.147.189,"Mozilla/5.0 (Windows NT 10.0; Win64; x64) AppleWebKit/537.36 (KHTML, like Gecko) Chrome/96.0.4664.110 Safari/537.36",WebKit,Chrome,96.0.4664.110,Windows,10.0,ac0f2dffeffaa78d35a552e03d03f0a8
31,1,"""",pre-exp,instructions_block3,canvas-button-response,5,40037,0.0-3.0-0.0-0.0,3PKVGQTFJQLSZOM7OKJDU84QFXXYRA,A122LRCSBAD6DC,33LKR6A5KNLBCHLP6MM14KQMZIO1TI,5RL34,5RL34,33LKR6A5KNLBCHLP6MM14KQMZIO1TI,33LKR6A5KNLBCHLP6MM14KQMZIO1TI,338054,338054,1,0.03,"""",4230.599999904633,0,instructionStim2,0,Counter-clockwise,true,"""","""","""","""","""","2021-12-31 05:11:20",174.48.147.189,"Mozilla/5.0 (Windows NT 10.0; Win64; x64) AppleWebKit/537.36 (KHTML, like Gecko) Chrome/96.0.4664.110 Safari/537.36",WebKit,Chrome,96.0.4664.110,Windows,10.0,ac0f2dffeffaa78d35a552e03d03f0a8
31,1,"""",pre-exp,instructions_block4,html-slider-response,6,56443,0.0-4.0,3PKVGQTFJQLSZOM7OKJDU84QFXXYRA,A122LRCSBAD6DC,33LKR6A5KNLBCHLP6MM14KQMZIO1TI,5RL34,5RL34,33LKR6A5KNLBCHLP6MM14KQMZIO1TI,33LKR6A5KNLBCHLP6MM14KQMZIO1TI,338054,338054,1,0.03,"""",16403,100,"<div id=""message-div""><p>After you have made your clockwise/counter-clockwise choice, <br>you will be asked to rate how confident you are that you were correct in your clockwise/counter-clockwise choice using a slide bar.<br>Please try to use the entire range of the slider bar.<br>For example, feel free to move the slider to the leftmost location if you are extremely uncertain about your choice, and the rightmost location if you are extremely certain.</p></div>","""","""","""",50,"""","""","""","""","2021-12-31 05:11:20",174.48.147.189,"Mozilla/5.0 (Windows NT 10.0; Win64; x64) AppleWebKit/537.36 (KHTML, like Gecko) Chrome/96.0.4664.110 Safari/537.36",WebKit,Chrome,96.0.4664.110,Windows,10.0,ac0f2dffeffaa78d35a552e03d03f0a8
31,1,"""",pre-exp,instructionspage5,instructions,7,61444,0.0-5.0-0.0,3PKVGQTFJQLSZOM7OKJDU84QFXXYRA,A122LRCSBAD6DC,33LKR6A5KNLBCHLP6MM14KQMZIO1TI,5RL34,5RL34,33LKR6A5KNLBCHLP6MM14KQMZIO1TI,33LKR6A5KNLBCHLP6MM14KQMZIO1TI,338054,338054,1,0.03,"[{""page_index"":0,""viewing_time"":4999.800000190735}]",5000.100000143051,"""","""","""","""","""","""","""","""","""","""","2021-12-31 05:11:20",174.48.147.189,"Mozilla/5.0 (Windows NT 10.0; Win64; x64) AppleWebKit/537.36 (KHTML, like Gecko) Chrome/96.0.4664.110 Safari/537.36",WebKit,Chrome,96.0.4664.110,Windows,10.0,ac0f2dffeffaa78d35a552e03d03f0a8
31,1,"""",pre-exp,instructionspage6,instructions,8,62875,0.0-6.0-0.0,3PKVGQTFJQLSZOM7OKJDU84QFXXYRA,A122LRCSBAD6DC,33LKR6A5KNLBCHLP6MM14KQMZIO1TI,5RL34,5RL34,33LKR6A5KNLBCHLP6MM14KQMZIO1TI,33LKR6A5KNLBCHLP6MM14KQMZIO1TI,338054,338054,1,0.03,"[{""page_index"":0,""viewing_time"":1428.5}]",1428.7999999523163,"""","""","""","""","""","""","""","""","""","""","2021-12-31 05:11:20",174.48.147.189,"Mozilla/5.0 (Windows NT 10.0; Win64; x64) AppleWebKit/537.36 (KHTML, like Gecko) Chrome/96.0.4664.110 Safari/537.36",WebKit,Chrome,96.0.4664.110,Windows,10.0,ac0f2dffeffaa78d35a552e03d03f0a8
31,1,"""",pre-exp,instructionspage7,instructions,9,68464,0.0-7.0-0.0,3PKVGQTFJQLSZOM7OKJDU84QFXXYRA,A122LRCSBAD6DC,33LKR6A5KNLBCHLP6MM14KQMZIO1TI,5RL34,5RL34,33LKR6A5KNLBCHLP6MM14KQMZIO1TI,33LKR6A5KNLBCHLP6MM14KQMZIO1TI,338054,338054,1,0.03,"[{""page_index"":0,""viewing_time"":5588}]",5588.299999952316,"""","""","""","""","""","""","""","""","""","""","2021-12-31 05:11:20",174.48.147.189,"Mozilla/5.0 (Windows NT 10.0; Win64; x64) AppleWebKit/537.36 (KHTML, like Gecko) Chrome/96.0.4664.110 Safari/537.36",WebKit,Chrome,96.0.4664.110,Windows,10.0,ac0f2dffeffaa78d35a552e03d03f0a8
31,1,"""",pre-exp,instructionspage8,instructions,10,69457,0.0-8.0-0.0,3PKVGQTFJQLSZOM7OKJDU84QFXXYRA,A122LRCSBAD6DC,33LKR6A5KNLBCHLP6MM14KQMZIO1TI,5RL34,5RL34,33LKR6A5KNLBCHLP6MM14KQMZIO1TI,33LKR6A5KNLBCHLP6MM14KQMZIO1TI,338054,338054,1,0.03,"[{""page_index"":0,""viewing_time"":991.1000001430511}]",991.2999999523163,"""","""","""","""","""","""","""","""","""","""","2021-12-31 05:11:20",174.48.147.189,"Mozilla/5.0 (Windows NT 10.0; Win64; x64) AppleWebKit/537.36 (KHTML, like Gecko) Chrome/96.0.4664.110 Safari/537.36",WebKit,Chrome,96.0.4664.110,Windows,10.0,ac0f2dffeffaa78d35a552e03d03f0a8
31,1,"""",practice_procedure,fixation,html-keyboard-response,11,69958,0.0-9.0-0.0-0.0,3PKVGQTFJQLSZOM7OKJDU84QFXXYRA,A122LRCSBAD6DC,33LKR6A5KNLBCHLP6MM14KQMZIO1TI,5RL34,5RL34,33LKR6A5KNLBCHLP6MM14KQMZIO1TI,33LKR6A5KNLBCHLP6MM14KQMZIO1TI,338054,338054,1,0.03,"""",null,null,"<div class = fixationbox><div class = fixation>+</div></div>","""","""","""","""","""","""","""","""","2021-12-31 05:11:20",174.48.147.189,"Mozilla/5.0 (Windows NT 10.0; Win64; x64) AppleWebKit/537.36 (KHTML, like Gecko) Chrome/96.0.4664.110 Safari/537.36",WebKit,Chrome,96.0.4664.110,Windows,10.0,ac0f2dffeffaa78d35a552e03d03f0a8
31,1,"""",practice_procedure,stim_practice,canvas-button-response,12,71589,0.0-9.0-0.0-1.0,3PKVGQTFJQLSZOM7OKJDU84QFXXYRA,A122LRCSBAD6DC,33LKR6A5KNLBCHLP6MM14KQMZIO1TI,5RL34,5RL34,33LKR6A5KNLBCHLP6MM14KQMZIO1TI,33LKR6A5KNLBCHLP6MM14KQMZIO1TI,338054,338054,1,0.03,"""",1579.5,1,practiceStim1,1,Clockwise,true,"""",0.01,60,0.99,"""","2021-12-31 05:11:20",174.48.147.189,"Mozilla/5.0 (Windows NT 10.0; Win64; x64) AppleWebKit/537.36 (KHTML, like Gecko) Chrome/96.0.4664.110 Safari/537.36",WebKit,Chrome,96.0.4664.110,Windows,10.0,ac0f2dffeffaa78d35a552e03d03f0a8
31,1,"""",practice_procedure,confidence_rating,html-slider-response,13,73734,0.0-9.0-0.0-2.0,3PKVGQTFJQLSZOM7OKJDU84QFXXYRA,A122LRCSBAD6DC,33LKR6A5KNLBCHLP6MM14KQMZIO1TI,5RL34,5RL34,33LKR6A5KNLBCHLP6MM14KQMZIO1TI,33LKR6A5KNLBCHLP6MM14KQMZIO1TI,338054,338054,1,0.03,"""",2143.7000000476837,87,"<div id=""message-div""><p>How confident are you that your clockwise/counter-clockwise response just now was accurate? Please rate your confidence on the slider bar below.</p></div>","""","""","""",50,"""","""","""",87,"2021-12-31 05:11:20",174.48.147.189,"Mozilla/5.0 (Windows NT 10.0; Win64; x64) AppleWebKit/537.36 (KHTML, like Gecko) Chrome/96.0.4664.110 Safari/537.36",WebKit,Chrome,96.0.4664.110,Windows,10.0,ac0f2dffeffaa78d35a552e03d03f0a8
31,1,"""",practice_procedure,fixation,html-keyboard-response,14,74236,0.0-9.0-0.0-0.1,3PKVGQTFJQLSZOM7OKJDU84QFXXYRA,A122LRCSBAD6DC,33LKR6A5KNLBCHLP6MM14KQMZIO1TI,5RL34,5RL34,33LKR6A5KNLBCHLP6MM14KQMZIO1TI,33LKR6A5KNLBCHLP6MM14KQMZIO1TI,338054,338054,1,0.03,"""",null,null,"<div class = fixationbox><div class = fixation>+</div></div>","""","""","""","""","""","""","""","""","2021-12-31 05:11:20",174.48.147.189,"Mozilla/5.0 (Windows NT 10.0; Win64; x64) AppleWebKit/537.36 (KHTML, like Gecko) Chrome/96.0.4664.110 Safari/537.36",WebKit,Chrome,96.0.4664.110,Windows,10.0,ac0f2dffeffaa78d35a552e03d03f0a8
31,1,"""",practice_procedure,stim_practice,canvas-button-response,15,75391,0.0-9.0-0.0-1.1,3PKVGQTFJQLSZOM7OKJDU84QFXXYRA,A122LRCSBAD6DC,33LKR6A5KNLBCHLP6MM14KQMZIO1TI,5RL34,5RL34,33LKR6A5KNLBCHLP6MM14KQMZIO1TI,33LKR6A5KNLBCHLP6MM14KQMZIO1TI,338054,338054,1,0.03,"""",1115.6000001430511,0,practiceStim4,0,Counter-clockwise,true,"""",0.3,120,0.99,"""","2021-12-31 05:11:20",174.48.147.189,"Mozilla/5.0 (Windows NT 10.0; Win64; x64) AppleWebKit/537.36 (KHTML, like Gecko) Chrome/96.0.4664.110 Safari/537.36",WebKit,Chrome,96.0.4664.110,Windows,10.0,ac0f2dffeffaa78d35a552e03d03f0a8
31,1,"""",practice_procedure,confidence_rating,html-slider-response,16,79671,0.0-9.0-0.0-2.1,3PKVGQTFJQLSZOM7OKJDU84QFXXYRA,A122LRCSBAD6DC,33LKR6A5KNLBCHLP6MM14KQMZIO1TI,5RL34,5RL34,33LKR6A5KNLBCHLP6MM14KQMZIO1TI,33LKR6A5KNLBCHLP6MM14KQMZIO1TI,338054,338054,1,0.03,"""",4278.699999809265,100,"<div id=""message-div""><p>How confident are you that your clockwise/counter-clockwise response just now was accurate? Please rate your confidence on the slider bar below.</p></div>","""","""","""",50,"""","""","""",100,"2021-12-31 05:11:20",174.48.147.189,"Mozilla/5.0 (Windows NT 10.0; Win64; x64) AppleWebKit/537.36 (KHTML, like Gecko) Chrome/96.0.4664.110 Safari/537.36",WebKit,Chrome,96.0.4664.110,Windows,10.0,ac0f2dffeffaa78d35a552e03d03f0a8
31,1,"""",practice_procedure,fixation,html-keyboard-response,17,80174,0.0-9.0-0.0-0.2,3PKVGQTFJQLSZOM7OKJDU84QFXXYRA,A122LRCSBAD6DC,33LKR6A5KNLBCHLP6MM14KQMZIO1TI,5RL34,5RL34,33LKR6A5KNLBCHLP6MM14KQMZIO1TI,33LKR6A5KNLBCHLP6MM14KQMZIO1TI,338054,338054,1,0.03,"""",null,null,"<div class = fixationbox><div class = fixation>+</div></div>","""","""","""","""","""","""","""","""","2021-12-31 05:11:20",174.48.147.189,"Mozilla/5.0 (Windows NT 10.0; Win64; x64) AppleWebKit/537.36 (KHTML, like Gecko) Chrome/96.0.4664.110 Safari/537.36",WebKit,Chrome,96.0.4664.110,Windows,10.0,ac0f2dffeffaa78d35a552e03d03f0a8
31,1,"""",practice_procedure,stim_practice,canvas-button-response,18,81567,0.0-9.0-0.0-1.2,3PKVGQTFJQLSZOM7OKJDU84QFXXYRA,A122LRCSBAD6DC,33LKR6A5KNLBCHLP6MM14KQMZIO1TI,5RL34,5RL34,33LKR6A5KNLBCHLP6MM14KQMZIO1TI,33LKR6A5KNLBCHLP6MM14KQMZIO1TI,338054,338054,1,0.03,"""",1358.7000000476837,0,practiceStim2,0,Counter-clockwise,true,"""",0.01,120,0.99,"""","2021-12-31 05:11:20",174.48.147.189,"Mozilla/5.0 (Windows NT 10.0; Win64; x64) AppleWebKit/537.36 (KHTML, like Gecko) Chrome/96.0.4664.110 Safari/537.36",WebKit,Chrome,96.0.4664.110,Windows,10.0,ac0f2dffeffaa78d35a552e03d03f0a8
31,1,"""",practice_procedure,confidence_rating,html-slider-response,19,85595,0.0-9.0-0.0-2.2,3PKVGQTFJQLSZOM7OKJDU84QFXXYRA,A122LRCSBAD6DC,33LKR6A5KNLBCHLP6MM14KQMZIO1TI,5RL34,5RL34,33LKR6A5KNLBCHLP6MM14KQMZIO1TI,33LKR6A5KNLBCHLP6MM14KQMZIO1TI,338054,338054,1,0.03,"""",4027.100000143051,84,"<div id=""message-div""><p>How confident are you that your clockwise/counter-clockwise response just now was accurate? Please rate your confidence on the slider bar below.</p></div>","""","""","""",50,"""","""","""",84,"2021-12-31 05:11:20",174.48.147.189,"Mozilla/5.0 (Windows NT 10.0; Win64; x64) AppleWebKit/537.36 (KHTML, like Gecko) Chrome/96.0.4664.110 Safari/537.36",WebKit,Chrome,96.0.4664.110,Windows,10.0,ac0f2dffeffaa78d35a552e03d03f0a8
31,1,"""",practice_procedure,fixation,html-keyboard-response,20,86097,0.0-9.0-0.0-0.3,3PKVGQTFJQLSZOM7OKJDU84QFXXYRA,A122LRCSBAD6DC,33LKR6A5KNLBCHLP6MM14KQMZIO1TI,5RL34,5RL34,33LKR6A5KNLBCHLP6MM14KQMZIO1TI,33LKR6A5KNLBCHLP6MM14KQMZIO1TI,338054,338054,1,0.03,"""",null,null,"<div class = fixationbox><div class = fixation>+</div></div>","""","""","""","""","""","""","""","""","2021-12-31 05:11:20",174.48.147.189,"Mozilla/5.0 (Windows NT 10.0; Win64; x64) AppleWebKit/537.36 (KHTML, like Gecko) Chrome/96.0.4664.110 Safari/537.36",WebKit,Chrome,96.0.4664.110,Windows,10.0,ac0f2dffeffaa78d35a552e03d03f0a8
31,1,"""",practice_procedure,stim_practice,canvas-button-response,21,87153,0.0-9.0-0.0-1.3,3PKVGQTFJQLSZOM7OKJDU84QFXXYRA,A122LRCSBAD6DC,33LKR6A5KNLBCHLP6MM14KQMZIO1TI,5RL34,5RL34,33LKR6A5KNLBCHLP6MM14KQMZIO1TI,33LKR6A5KNLBCHLP6MM14KQMZIO1TI,338054,338054,1,0.03,"""",1018,0,practiceStim4,0,Counter-clockwise,true,"""",0.3,120,0.99,"""","2021-12-31 05:11:20",174.48.147.189,"Mozilla/5.0 (Windows NT 10.0; Win64; x64) AppleWebKit/537.36 (KHTML, like Gecko) Chrome/96.0.4664.110 Safari/537.36",WebKit,Chrome,96.0.4664.110,Windows,10.0,ac0f2dffeffaa78d35a552e03d03f0a8
31,1,"""",practice_procedure,confidence_rating,html-slider-response,22,89211,0.0-9.0-0.0-2.3,3PKVGQTFJQLSZOM7OKJDU84QFXXYRA,A122LRCSBAD6DC,33LKR6A5KNLBCHLP6MM14KQMZIO1TI,5RL34,5RL34,33LKR6A5KNLBCHLP6MM14KQMZIO1TI,33LKR6A5KNLBCHLP6MM14KQMZIO1TI,338054,338054,1,0.03,"""",2056.7000000476837,96,"<div id=""message-div""><p>How confident are you that your clockwise/counter-clockwise response just now was accurate? Please rate your confidence on the slider bar below.</p></div>","""","""","""",50,"""","""","""",96,"2021-12-31 05:11:20",174.48.147.189,"Mozilla/5.0 (Windows NT 10.0; Win64; x64) AppleWebKit/537.36 (KHTML, like Gecko) Chrome/96.0.4664.110 Safari/537.36",WebKit,Chrome,96.0.4664.110,Windows,10.0,ac0f2dffeffaa78d35a552e03d03f0a8
31,1,"""",practice_procedure,fixation,html-keyboard-response,23,89712,0.0-9.0-0.0-0.4,3PKVGQTFJQLSZOM7OKJDU84QFXXYRA,A122LRCSBAD6DC,33LKR6A5KNLBCHLP6MM14KQMZIO1TI,5RL34,5RL34,33LKR6A5KNLBCHLP6MM14KQMZIO1TI,33LKR6A5KNLBCHLP6MM14KQMZIO1TI,338054,338054,1,0.03,"""",null,null,"<div class = fixationbox><div class = fixation>+</div></div>","""","""","""","""","""","""","""","""","2021-12-31 05:11:20",174.48.147.189,"Mozilla/5.0 (Windows NT 10.0; Win64; x64) AppleWebKit/537.36 (KHTML, like Gecko) Chrome/96.0.4664.110 Safari/537.36",WebKit,Chrome,96.0.4664.110,Windows,10.0,ac0f2dffeffaa78d35a552e03d03f0a8
31,1,"""",practice_procedure,stim_practice,canvas-button-response,24,90704,0.0-9.0-0.0-1.4,3PKVGQTFJQLSZOM7OKJDU84QFXXYRA,A122LRCSBAD6DC,33LKR6A5KNLBCHLP6MM14KQMZIO1TI,5RL34,5RL34,33LKR6A5KNLBCHLP6MM14KQMZIO1TI,33LKR6A5KNLBCHLP6MM14KQMZIO1TI,338054,338054,1,0.03,"""",958.5,1,practiceStim1,1,Clockwise,true,"""",0.01,60,0.99,"""","2021-12-31 05:11:20",174.48.147.189,"Mozilla/5.0 (Windows NT 10.0; Win64; x64) AppleWebKit/537.36 (KHTML, like Gecko) Chrome/96.0.4664.110 Safari/537.36",WebKit,Chrome,96.0.4664.110,Windows,10.0,ac0f2dffeffaa78d35a552e03d03f0a8
31,1,"""",practice_procedure,confidence_rating,html-slider-response,25,92839,0.0-9.0-0.0-2.4,3PKVGQTFJQLSZOM7OKJDU84QFXXYRA,A122LRCSBAD6DC,33LKR6A5KNLBCHLP6MM14KQMZIO1TI,5RL34,5RL34,33LKR6A5KNLBCHLP6MM14KQMZIO1TI,33LKR6A5KNLBCHLP6MM14KQMZIO1TI,338054,338054,1,0.03,"""",2134.0999999046326,96,"<div id=""message-div""><p>How confident are you that your clockwise/counter-clockwise response just now was accurate? Please rate your confidence on the slider bar below.</p></div>","""","""","""",50,"""","""","""",96,"2021-12-31 05:11:20",174.48.147.189,"Mozilla/5.0 (Windows NT 10.0; Win64; x64) AppleWebKit/537.36 (KHTML, like Gecko) Chrome/96.0.4664.110 Safari/537.36",WebKit,Chrome,96.0.4664.110,Windows,10.0,ac0f2dffeffaa78d35a552e03d03f0a8
31,1,"""",practice_procedure,fixation,html-keyboard-response,26,93341,0.0-9.0-0.0-0.5,3PKVGQTFJQLSZOM7OKJDU84QFXXYRA,A122LRCSBAD6DC,33LKR6A5KNLBCHLP6MM14KQMZIO1TI,5RL34,5RL34,33LKR6A5KNLBCHLP6MM14KQMZIO1TI,33LKR6A5KNLBCHLP6MM14KQMZIO1TI,338054,338054,1,0.03,"""",null,null,"<div class = fixationbox><div class = fixation>+</div></div>","""","""","""","""","""","""","""","""","2021-12-31 05:11:20",174.48.147.189,"Mozilla/5.0 (Windows NT 10.0; Win64; x64) AppleWebKit/537.36 (KHTML, like Gecko) Chrome/96.0.4664.110 Safari/537.36",WebKit,Chrome,96.0.4664.110,Windows,10.0,ac0f2dffeffaa78d35a552e03d03f0a8
31,1,"""",practice_procedure,stim_practice,canvas-button-response,27,94494,0.0-9.0-0.0-1.5,3PKVGQTFJQLSZOM7OKJDU84QFXXYRA,A122LRCSBAD6DC,33LKR6A5KNLBCHLP6MM14KQMZIO1TI,5RL34,5RL34,33LKR6A5KNLBCHLP6MM14KQMZIO1TI,33LKR6A5KNLBCHLP6MM14KQMZIO1TI,338054,338054,1,0.03,"""",1119.2000000476837,1,practiceStim1,1,Clockwise,true,"""",0.01,60,0.99,"""","2021-12-31 05:11:20",174.48.147.189,"Mozilla/5.0 (Windows NT 10.0; Win64; x64) AppleWebKit/537.36 (KHTML, like Gecko) Chrome/96.0.4664.110 Safari/537.36",WebKit,Chrome,96.0.4664.110,Windows,10.0,ac0f2dffeffaa78d35a552e03d03f0a8
31,1,"""",practice_procedure,confidence_rating,html-slider-response,28,95904,0.0-9.0-0.0-2.5,3PKVGQTFJQLSZOM7OKJDU84QFXXYRA,A122LRCSBAD6DC,33LKR6A5KNLBCHLP6MM14KQMZIO1TI,5RL34,5RL34,33LKR6A5KNLBCHLP6MM14KQMZIO1TI,33LKR6A5KNLBCHLP6MM14KQMZIO1TI,338054,338054,1,0.03,"""",1409,88,"<div id=""message-div""><p>How confident are you that your clockwise/counter-clockwise response just now was accurate? Please rate your confidence on the slider bar below.</p></div>","""","""","""",50,"""","""","""",88,"2021-12-31 05:11:20",174.48.147.189,"Mozilla/5.0 (Windows NT 10.0; Win64; x64) AppleWebKit/537.36 (KHTML, like Gecko) Chrome/96.0.4664.110 Safari/537.36",WebKit,Chrome,96.0.4664.110,Windows,10.0,ac0f2dffeffaa78d35a552e03d03f0a8
31,1,"""",practice_procedure,fixation,html-keyboard-response,29,96406,0.0-9.0-0.0-0.6,3PKVGQTFJQLSZOM7OKJDU84QFXXYRA,A122LRCSBAD6DC,33LKR6A5KNLBCHLP6MM14KQMZIO1TI,5RL34,5RL34,33LKR6A5KNLBCHLP6MM14KQMZIO1TI,33LKR6A5KNLBCHLP6MM14KQMZIO1TI,338054,338054,1,0.03,"""",null,null,"<div class = fixationbox><div class = fixation>+</div></div>","""","""","""","""","""","""","""","""","2021-12-31 05:11:20",174.48.147.189,"Mozilla/5.0 (Windows NT 10.0; Win64; x64) AppleWebKit/537.36 (KHTML, like Gecko) Chrome/96.0.4664.110 Safari/537.36",WebKit,Chrome,96.0.4664.110,Windows,10.0,ac0f2dffeffaa78d35a552e03d03f0a8
31,1,"""",practice_procedure,stim_practice,canvas-button-response,30,97879,0.0-9.0-0.0-1.6,3PKVGQTFJQLSZOM7OKJDU84QFXXYRA,A122LRCSBAD6DC,33LKR6A5KNLBCHLP6MM14KQMZIO1TI,5RL34,5RL34,33LKR6A5KNLBCHLP6MM14KQMZIO1TI,33LKR6A5KNLBCHLP6MM14KQMZIO1TI,338054,338054,1,0.03,"""",1438.3000001907349,0,practiceStim2,0,Counter-clockwise,true,"""",0.01,120,0.99,"""","2021-12-31 05:11:20",174.48.147.189,"Mozilla/5.0 (Windows NT 10.0; Win64; x64) AppleWebKit/537.36 (KHTML, like Gecko) Chrome/96.0.4664.110 Safari/537.36",WebKit,Chrome,96.0.4664.110,Windows,10.0,ac0f2dffeffaa78d35a552e03d03f0a8
31,1,"""",practice_procedure,confidence_rating,html-slider-response,31,99747,0.0-9.0-0.0-2.6,3PKVGQTFJQLSZOM7OKJDU84QFXXYRA,A122LRCSBAD6DC,33LKR6A5KNLBCHLP6MM14KQMZIO1TI,5RL34,5RL34,33LKR6A5KNLBCHLP6MM14KQMZIO1TI,33LKR6A5KNLBCHLP6MM14KQMZIO1TI,338054,338054,1,0.03,"""",1867,90,"<div id=""message-div""><p>How confident are you that your clockwise/counter-clockwise response just now was accurate? Please rate your confidence on the slider bar below.</p></div>","""","""","""",50,"""","""","""",90,"2021-12-31 05:11:20",174.48.147.189,"Mozilla/5.0 (Windows NT 10.0; Win64; x64) AppleWebKit/537.36 (KHTML, like Gecko) Chrome/96.0.4664.110 Safari/537.36",WebKit,Chrome,96.0.4664.110,Windows,10.0,ac0f2dffeffaa78d35a552e03d03f0a8
31,1,"""",practice_procedure,fixation,html-keyboard-response,32,100250,0.0-9.0-0.0-0.7,3PKVGQTFJQLSZOM7OKJDU84QFXXYRA,A122LRCSBAD6DC,33LKR6A5KNLBCHLP6MM14KQMZIO1TI,5RL34,5RL34,33LKR6A5KNLBCHLP6MM14KQMZIO1TI,33LKR6A5KNLBCHLP6MM14KQMZIO1TI,338054,338054,1,0.03,"""",null,null,"<div class = fixationbox><div class = fixation>+</div></div>","""","""","""","""","""","""","""","""","2021-12-31 05:11:20",174.48.147.189,"Mozilla/5.0 (Windows NT 10.0; Win64; x64) AppleWebKit/537.36 (KHTML, like Gecko) Chrome/96.0.4664.110 Safari/537.36",WebKit,Chrome,96.0.4664.110,Windows,10.0,ac0f2dffeffaa78d35a552e03d03f0a8
31,1,"""",practice_procedure,stim_practice,canvas-button-response,33,101312,0.0-9.0-0.0-1.7,3PKVGQTFJQLSZOM7OKJDU84QFXXYRA,A122LRCSBAD6DC,33LKR6A5KNLBCHLP6MM14KQMZIO1TI,5RL34,5RL34,33LKR6A5KNLBCHLP6MM14KQMZIO1TI,33LKR6A5KNLBCHLP6MM14KQMZIO1TI,338054,338054,1,0.03,"""",1026.6999998092651,0,practiceStim4,0,Counter-clockwise,true,"""",0.3,120,0.99,"""","2021-12-31 05:11:20",174.48.147.189,"Mozilla/5.0 (Windows NT 10.0; Win64; x64) AppleWebKit/537.36 (KHTML, like Gecko) Chrome/96.0.4664.110 Safari/537.36",WebKit,Chrome,96.0.4664.110,Windows,10.0,ac0f2dffeffaa78d35a552e03d03f0a8
31,1,"""",practice_procedure,confidence_rating,html-slider-response,34,102842,0.0-9.0-0.0-2.7,3PKVGQTFJQLSZOM7OKJDU84QFXXYRA,A122LRCSBAD6DC,33LKR6A5KNLBCHLP6MM14KQMZIO1TI,5RL34,5RL34,33LKR6A5KNLBCHLP6MM14KQMZIO1TI,33LKR6A5KNLBCHLP6MM14KQMZIO1TI,338054,338054,1,0.03,"""",1529.4000000953674,95,"<div id=""message-div""><p>How confident are you that your clockwise/counter-clockwise response just now was accurate? Please rate your confidence on the slider bar below.</p></div>","""","""","""",50,"""","""","""",95,"2021-12-31 05:11:20",174.48.147.189,"Mozilla/5.0 (Windows NT 10.0; Win64; x64) AppleWebKit/537.36 (KHTML, like Gecko) Chrome/96.0.4664.110 Safari/537.36",WebKit,Chrome,96.0.4664.110,Windows,10.0,ac0f2dffeffaa78d35a552e03d03f0a8
31,1,"""",practice_procedure,fixation,html-keyboard-response,35,103343,0.0-9.0-0.0-0.8,3PKVGQTFJQLSZOM7OKJDU84QFXXYRA,A122LRCSBAD6DC,33LKR6A5KNLBCHLP6MM14KQMZIO1TI,5RL34,5RL34,33LKR6A5KNLBCHLP6MM14KQMZIO1TI,33LKR6A5KNLBCHLP6MM14KQMZIO1TI,338054,338054,1,0.03,"""",null,null,"<div class = fixationbox><div class = fixation>+</div></div>","""","""","""","""","""","""","""","""","2021-12-31 05:11:20",174.48.147.189,"Mozilla/5.0 (Windows NT 10.0; Win64; x64) AppleWebKit/537.36 (KHTML, like Gecko) Chrome/96.0.4664.110 Safari/537.36",WebKit,Chrome,96.0.4664.110,Windows,10.0,ac0f2dffeffaa78d35a552e03d03f0a8
31,1,"""",practice_procedure,stim_practice,canvas-button-response,36,104409,0.0-9.0-0.0-1.8,3PKVGQTFJQLSZOM7OKJDU84QFXXYRA,A122LRCSBAD6DC,33LKR6A5KNLBCHLP6MM14KQMZIO1TI,5RL34,5RL34,33LKR6A5KNLBCHLP6MM14KQMZIO1TI,33LKR6A5KNLBCHLP6MM14KQMZIO1TI,338054,338054,1,0.03,"""",1030.7000000476837,0,practiceStim2,0,Counter-clockwise,true,"""",0.01,120,0.99,"""","2021-12-31 05:11:20",174.48.147.189,"Mozilla/5.0 (Windows NT 10.0; Win64; x64) AppleWebKit/537.36 (KHTML, like Gecko) Chrome/96.0.4664.110 Safari/537.36",WebKit,Chrome,96.0.4664.110,Windows,10.0,ac0f2dffeffaa78d35a552e03d03f0a8
31,1,"""",practice_procedure,confidence_rating,html-slider-response,37,106976,0.0-9.0-0.0-2.8,3PKVGQTFJQLSZOM7OKJDU84QFXXYRA,A122LRCSBAD6DC,33LKR6A5KNLBCHLP6MM14KQMZIO1TI,5RL34,5RL34,33LKR6A5KNLBCHLP6MM14KQMZIO1TI,33LKR6A5KNLBCHLP6MM14KQMZIO1TI,338054,338054,1,0.03,"""",2565.7999999523163,96,"<div id=""message-div""><p>How confident are you that your clockwise/counter-clockwise response just now was accurate? Please rate your confidence on the slider bar below.</p></div>","""","""","""",50,"""","""","""",96,"2021-12-31 05:11:20",174.48.147.189,"Mozilla/5.0 (Windows NT 10.0; Win64; x64) AppleWebKit/537.36 (KHTML, like Gecko) Chrome/96.0.4664.110 Safari/537.36",WebKit,Chrome,96.0.4664.110,Windows,10.0,ac0f2dffeffaa78d35a552e03d03f0a8
31,1,"""",practice_procedure,fixation,html-keyboard-response,38,107479,0.0-9.0-0.0-0.9,3PKVGQTFJQLSZOM7OKJDU84QFXXYRA,A122LRCSBAD6DC,33LKR6A5KNLBCHLP6MM14KQMZIO1TI,5RL34,5RL34,33LKR6A5KNLBCHLP6MM14KQMZIO1TI,33LKR6A5KNLBCHLP6MM14KQMZIO1TI,338054,338054,1,0.03,"""",null,null,"<div class = fixationbox><div class = fixation>+</div></div>","""","""","""","""","""","""","""","""","2021-12-31 05:11:20",174.48.147.189,"Mozilla/5.0 (Windows NT 10.0; Win64; x64) AppleWebKit/537.36 (KHTML, like Gecko) Chrome/96.0.4664.110 Safari/537.36",WebKit,Chrome,96.0.4664.110,Windows,10.0,ac0f2dffeffaa78d35a552e03d03f0a8
31,1,"""",practice_procedure,stim_practice,canvas-button-response,39,108409,0.0-9.0-0.0-1.9,3PKVGQTFJQLSZOM7OKJDU84QFXXYRA,A122LRCSBAD6DC,33LKR6A5KNLBCHLP6MM14KQMZIO1TI,5RL34,5RL34,33LKR6A5KNLBCHLP6MM14KQMZIO1TI,33LKR6A5KNLBCHLP6MM14KQMZIO1TI,338054,338054,1,0.03,"""",896.0999999046326,1,practiceStim1,1,Clockwise,true,"""",0.01,60,0.99,"""","2021-12-31 05:11:20",174.48.147.189,"Mozilla/5.0 (Windows NT 10.0; Win64; x64) AppleWebKit/537.36 (KHTML, like Gecko) Chrome/96.0.4664.110 Safari/537.36",WebKit,Chrome,96.0.4664.110,Windows,10.0,ac0f2dffeffaa78d35a552e03d03f0a8
31,1,"""",practice_procedure,confidence_rating,html-slider-response,40,109974,0.0-9.0-0.0-2.9,3PKVGQTFJQLSZOM7OKJDU84QFXXYRA,A122LRCSBAD6DC,33LKR6A5KNLBCHLP6MM14KQMZIO1TI,5RL34,5RL34,33LKR6A5KNLBCHLP6MM14KQMZIO1TI,33LKR6A5KNLBCHLP6MM14KQMZIO1TI,338054,338054,1,0.03,"""",1564.2000000476837,99,"<div id=""message-div""><p>How confident are you that your clockwise/counter-clockwise response just now was accurate? Please rate your confidence on the slider bar below.</p></div>","""","""","""",50,"""","""","""",99,"2021-12-31 05:11:20",174.48.147.189,"Mozilla/5.0 (Windows NT 10.0; Win64; x64) AppleWebKit/537.36 (KHTML, like Gecko) Chrome/96.0.4664.110 Safari/537.36",WebKit,Chrome,96.0.4664.110,Windows,10.0,ac0f2dffeffaa78d35a552e03d03f0a8
31,1,"""",pre-test,test_instruction,instructions,41,122006,0.0-10.0,3PKVGQTFJQLSZOM7OKJDU84QFXXYRA,A122LRCSBAD6DC,33LKR6A5KNLBCHLP6MM14KQMZIO1TI,5RL34,5RL34,33LKR6A5KNLBCHLP6MM14KQMZIO1TI,33LKR6A5KNLBCHLP6MM14KQMZIO1TI,338054,338054,1,0.03,"[{""page_index"":0,""viewing_time"":12030.600000143051}]",12030.900000095367,"""","""","""","""","""","""","""","""","""","""","2021-12-31 05:11:20",174.48.147.189,"Mozilla/5.0 (Windows NT 10.0; Win64; x64) AppleWebKit/537.36 (KHTML, like Gecko) Chrome/96.0.4664.110 Safari/537.36",WebKit,Chrome,96.0.4664.110,Windows,10.0,ac0f2dffeffaa78d35a552e03d03f0a8
31,1,"""",test_procedure,fixation,html-keyboard-response,42,122509,0.0-11.0-0.0-0.0,3PKVGQTFJQLSZOM7OKJDU84QFXXYRA,A122LRCSBAD6DC,33LKR6A5KNLBCHLP6MM14KQMZIO1TI,5RL34,5RL34,33LKR6A5KNLBCHLP6MM14KQMZIO1TI,33LKR6A5KNLBCHLP6MM14KQMZIO1TI,338054,338054,1,0.03,"""",null,null,"<div class = fixationbox><div class = fixation>+</div></div>","""","""","""","""","""","""","""","""","2021-12-31 05:11:20",174.48.147.189,"Mozilla/5.0 (Windows NT 10.0; Win64; x64) AppleWebKit/537.36 (KHTML, like Gecko) Chrome/96.0.4664.110 Safari/537.36",WebKit,Chrome,96.0.4664.110,Windows,10.0,ac0f2dffeffaa78d35a552e03d03f0a8
31,1,"""",test_procedure,stim_test,canvas-button-response,43,123910,0.0-11.0-0.0-1.0,3PKVGQTFJQLSZOM7OKJDU84QFXXYRA,A122LRCSBAD6DC,33LKR6A5KNLBCHLP6MM14KQMZIO1TI,5RL34,5RL34,33LKR6A5KNLBCHLP6MM14KQMZIO1TI,33LKR6A5KNLBCHLP6MM14KQMZIO1TI,338054,338054,1,0.03,"""",1354.5999999046326,1,catchStim1,1,Clockwise,true,"""",0.01,60,0.6,"""","2021-12-31 05:11:20",174.48.147.189,"Mozilla/5.0 (Windows NT 10.0; Win64; x64) AppleWebKit/537.36 (KHTML, like Gecko) Chrome/96.0.4664.110 Safari/537.36",WebKit,Chrome,96.0.4664.110,Windows,10.0,ac0f2dffeffaa78d35a552e03d03f0a8
31,1,"""",test_procedure,confidence_rating,html-slider-response,44,127583,0.0-11.0-0.0-2.0,3PKVGQTFJQLSZOM7OKJDU84QFXXYRA,A122LRCSBAD6DC,33LKR6A5KNLBCHLP6MM14KQMZIO1TI,5RL34,5RL34,33LKR6A5KNLBCHLP6MM14KQMZIO1TI,33LKR6A5KNLBCHLP6MM14KQMZIO1TI,338054,338054,1,0.03,"""",3672.100000143051,100,"<div id=""message-div""><p>How confident are you that your clockwise/counter-clockwise response just now was accurate? Please rate your confidence on the slider bar below.</p></div>","""","""","""",50,"""","""","""",100,"2021-12-31 05:11:20",174.48.147.189,"Mozilla/5.0 (Windows NT 10.0; Win64; x64) AppleWebKit/537.36 (KHTML, like Gecko) Chrome/96.0.4664.110 Safari/537.36",WebKit,Chrome,96.0.4664.110,Windows,10.0,ac0f2dffeffaa78d35a552e03d03f0a8
31,1,"""",test_procedure,fixation,html-keyboard-response,45,128087,0.0-11.0-0.0-0.1,3PKVGQTFJQLSZOM7OKJDU84QFXXYRA,A122LRCSBAD6DC,33LKR6A5KNLBCHLP6MM14KQMZIO1TI,5RL34,5RL34,33LKR6A5KNLBCHLP6MM14KQMZIO1TI,33LKR6A5KNLBCHLP6MM14KQMZIO1TI,338054,338054,1,0.03,"""",null,null,"<div class = fixationbox><div class = fixation>+</div></div>","""","""","""","""","""","""","""","""","2021-12-31 05:11:20",174.48.147.189,"Mozilla/5.0 (Windows NT 10.0; Win64; x64) AppleWebKit/537.36 (KHTML, like Gecko) Chrome/96.0.4664.110 Safari/537.36",WebKit,Chrome,96.0.4664.110,Windows,10.0,ac0f2dffeffaa78d35a552e03d03f0a8
31,1,"""",test_procedure,stim_test,canvas-button-response,46,129760,0.0-11.0-0.0-1.1,3PKVGQTFJQLSZOM7OKJDU84QFXXYRA,A122LRCSBAD6DC,33LKR6A5KNLBCHLP6MM14KQMZIO1TI,5RL34,5RL34,33LKR6A5KNLBCHLP6MM14KQMZIO1TI,33LKR6A5KNLBCHLP6MM14KQMZIO1TI,338054,338054,1,0.03,"""",1627.5,0,stim2,0,Counter-clockwise,true,"""",0.01,120,"""","""","2021-12-31 05:11:20",174.48.147.189,"Mozilla/5.0 (Windows NT 10.0; Win64; x64) AppleWebKit/537.36 (KHTML, like Gecko) Chrome/96.0.4664.110 Safari/537.36",WebKit,Chrome,96.0.4664.110,Windows,10.0,ac0f2dffeffaa78d35a552e03d03f0a8
31,1,"""",test_procedure,confidence_rating,html-slider-response,47,132339,0.0-11.0-0.0-2.1,3PKVGQTFJQLSZOM7OKJDU84QFXXYRA,A122LRCSBAD6DC,33LKR6A5KNLBCHLP6MM14KQMZIO1TI,5RL34,5RL34,33LKR6A5KNLBCHLP6MM14KQMZIO1TI,33LKR6A5KNLBCHLP6MM14KQMZIO1TI,338054,338054,1,0.03,"""",2578,0,"<div id=""message-div""><p>How confident are you that your clockwise/counter-clockwise response just now was accurate? Please rate your confidence on the slider bar below.</p></div>","""","""","""",50,"""","""","""",0,"2021-12-31 05:11:20",174.48.147.189,"Mozilla/5.0 (Windows NT 10.0; Win64; x64) AppleWebKit/537.36 (KHTML, like Gecko) Chrome/96.0.4664.110 Safari/537.36",WebKit,Chrome,96.0.4664.110,Windows,10.0,ac0f2dffeffaa78d35a552e03d03f0a8
31,1,"""",test_procedure,fixation,html-keyboard-response,48,132840,0.0-11.0-0.0-0.2,3PKVGQTFJQLSZOM7OKJDU84QFXXYRA,A122LRCSBAD6DC,33LKR6A5KNLBCHLP6MM14KQMZIO1TI,5RL34,5RL34,33LKR6A5KNLBCHLP6MM14KQMZIO1TI,33LKR6A5KNLBCHLP6MM14KQMZIO1TI,338054,338054,1,0.03,"""",null,null,"<div class = fixationbox><div class = fixation>+</div></div>","""","""","""","""","""","""","""","""","2021-12-31 05:11:20",174.48.147.189,"Mozilla/5.0 (Windows NT 10.0; Win64; x64) AppleWebKit/537.36 (KHTML, like Gecko) Chrome/96.0.4664.110 Safari/537.36",WebKit,Chrome,96.0.4664.110,Windows,10.0,ac0f2dffeffaa78d35a552e03d03f0a8
31,1,"""",test_procedure,stim_test,canvas-button-response,49,134185,0.0-11.0-0.0-1.2,3PKVGQTFJQLSZOM7OKJDU84QFXXYRA,A122LRCSBAD6DC,33LKR6A5KNLBCHLP6MM14KQMZIO1TI,5RL34,5RL34,33LKR6A5KNLBCHLP6MM14KQMZIO1TI,33LKR6A5KNLBCHLP6MM14KQMZIO1TI,338054,338054,1,0.03,"""",1307.6999998092651,1,stim2,0,Counter-clockwise,false,"""",0.01,120,"""","""","2021-12-31 05:11:20",174.48.147.189,"Mozilla/5.0 (Windows NT 10.0; Win64; x64) AppleWebKit/537.36 (KHTML, like Gecko) Chrome/96.0.4664.110 Safari/537.36",WebKit,Chrome,96.0.4664.110,Windows,10.0,ac0f2dffeffaa78d35a552e03d03f0a8
31,1,"""",test_procedure,confidence_rating,html-slider-response,50,136975,0.0-11.0-0.0-2.2,3PKVGQTFJQLSZOM7OKJDU84QFXXYRA,A122LRCSBAD6DC,33LKR6A5KNLBCHLP6MM14KQMZIO1TI,5RL34,5RL34,33LKR6A5KNLBCHLP6MM14KQMZIO1TI,33LKR6A5KNLBCHLP6MM14KQMZIO1TI,338054,338054,1,0.03,"""",2787.5999999046326,0,"<div id=""message-div""><p>How confident are you that your clockwise/counter-clockwise response just now was accurate? Please rate your confidence on the slider bar below.</p></div>","""","""","""",50,"""","""","""",0,"2021-12-31 05:11:20",174.48.147.189,"Mozilla/5.0 (Windows NT 10.0; Win64; x64) AppleWebKit/537.36 (KHTML, like Gecko) Chrome/96.0.4664.110 Safari/537.36",WebKit,Chrome,96.0.4664.110,Windows,10.0,ac0f2dffeffaa78d35a552e03d03f0a8
31,1,"""",test_procedure,fixation,html-keyboard-response,51,137477,0.0-11.0-0.0-0.3,3PKVGQTFJQLSZOM7OKJDU84QFXXYRA,A122LRCSBAD6DC,33LKR6A5KNLBCHLP6MM14KQMZIO1TI,5RL34,5RL34,33LKR6A5KNLBCHLP6MM14KQMZIO1TI,33LKR6A5KNLBCHLP6MM14KQMZIO1TI,338054,338054,1,0.03,"""",null,null,"<div class = fixationbox><div class = fixation>+</div></div>","""","""","""","""","""","""","""","""","2021-12-31 05:11:20",174.48.147.189,"Mozilla/5.0 (Windows NT 10.0; Win64; x64) AppleWebKit/537.36 (KHTML, like Gecko) Chrome/96.0.4664.110 Safari/537.36",WebKit,Chrome,96.0.4664.110,Windows,10.0,ac0f2dffeffaa78d35a552e03d03f0a8
31,1,"""",test_procedure,stim_test,canvas-button-response,52,138903,0.0-11.0-0.0-1.3,3PKVGQTFJQLSZOM7OKJDU84QFXXYRA,A122LRCSBAD6DC,33LKR6A5KNLBCHLP6MM14KQMZIO1TI,5RL34,5RL34,33LKR6A5KNLBCHLP6MM14KQMZIO1TI,33LKR6A5KNLBCHLP6MM14KQMZIO1TI,338054,338054,1,0.03,"""",1392.7999999523163,1,catchStim4,0,Counter-clockwise,false,"""",0.01,120,0.001,"""","2021-12-31 05:11:20",174.48.147.189,"Mozilla/5.0 (Windows NT 10.0; Win64; x64) AppleWebKit/537.36 (KHTML, like Gecko) Chrome/96.0.4664.110 Safari/537.36",WebKit,Chrome,96.0.4664.110,Windows,10.0,ac0f2dffeffaa78d35a552e03d03f0a8
31,1,"""",test_procedure,confidence_rating,html-slider-response,53,142024,0.0-11.0-0.0-2.3,3PKVGQTFJQLSZOM7OKJDU84QFXXYRA,A122LRCSBAD6DC,33LKR6A5KNLBCHLP6MM14KQMZIO1TI,5RL34,5RL34,33LKR6A5KNLBCHLP6MM14KQMZIO1TI,33LKR6A5KNLBCHLP6MM14KQMZIO1TI,338054,338054,1,0.03,"""",3120,26,"<div id=""message-div""><p>How confident are you that your clockwise/counter-clockwise response just now was accurate? Please rate your confidence on the slider bar below.</p></div>","""","""","""",50,"""","""","""",26,"2021-12-31 05:11:20",174.48.147.189,"Mozilla/5.0 (Windows NT 10.0; Win64; x64) AppleWebKit/537.36 (KHTML, like Gecko) Chrome/96.0.4664.110 Safari/537.36",WebKit,Chrome,96.0.4664.110,Windows,10.0,ac0f2dffeffaa78d35a552e03d03f0a8
31,1,"""",test_procedure,fixation,html-keyboard-response,54,142528,0.0-11.0-0.0-0.4,3PKVGQTFJQLSZOM7OKJDU84QFXXYRA,A122LRCSBAD6DC,33LKR6A5KNLBCHLP6MM14KQMZIO1TI,5RL34,5RL34,33LKR6A5KNLBCHLP6MM14KQMZIO1TI,33LKR6A5KNLBCHLP6MM14KQMZIO1TI,338054,338054,1,0.03,"""",null,null,"<div class = fixationbox><div class = fixation>+</div></div>","""","""","""","""","""","""","""","""","2021-12-31 05:11:20",174.48.147.189,"Mozilla/5.0 (Windows NT 10.0; Win64; x64) AppleWebKit/537.36 (KHTML, like Gecko) Chrome/96.0.4664.110 Safari/537.36",WebKit,Chrome,96.0.4664.110,Windows,10.0,ac0f2dffeffaa78d35a552e03d03f0a8
31,1,"""",test_procedure,stim_test,canvas-button-response,55,143610,0.0-11.0-0.0-1.4,3PKVGQTFJQLSZOM7OKJDU84QFXXYRA,A122LRCSBAD6DC,33LKR6A5KNLBCHLP6MM14KQMZIO1TI,5RL34,5RL34,33LKR6A5KNLBCHLP6MM14KQMZIO1TI,33LKR6A5KNLBCHLP6MM14KQMZIO1TI,338054,338054,1,0.03,"""",1049,0,stim2,0,Counter-clockwise,true,"""",0.01,120,"""","""","2021-12-31 05:11:20",174.48.147.189,"Mozilla/5.0 (Windows NT 10.0; Win64; x64) AppleWebKit/537.36 (KHTML, like Gecko) Chrome/96.0.4664.110 Safari/537.36",WebKit,Chrome,96.0.4664.110,Windows,10.0,ac0f2dffeffaa78d35a552e03d03f0a8
31,1,"""",test_procedure,confidence_rating,html-slider-response,56,146394,0.0-11.0-0.0-2.4,3PKVGQTFJQLSZOM7OKJDU84QFXXYRA,A122LRCSBAD6DC,33LKR6A5KNLBCHLP6MM14KQMZIO1TI,5RL34,5RL34,33LKR6A5KNLBCHLP6MM14KQMZIO1TI,33LKR6A5KNLBCHLP6MM14KQMZIO1TI,338054,338054,1,0.03,"""",2783,7,"<div id=""message-div""><p>How confident are you that your clockwise/counter-clockwise response just now was accurate? Please rate your confidence on the slider bar below.</p></div>","""","""","""",50,"""","""","""",7,"2021-12-31 05:11:20",174.48.147.189,"Mozilla/5.0 (Windows NT 10.0; Win64; x64) AppleWebKit/537.36 (KHTML, like Gecko) Chrome/96.0.4664.110 Safari/537.36",WebKit,Chrome,96.0.4664.110,Windows,10.0,ac0f2dffeffaa78d35a552e03d03f0a8
31,1,"""",test_procedure,fixation,html-keyboard-response,57,146896,0.0-11.0-0.0-0.5,3PKVGQTFJQLSZOM7OKJDU84QFXXYRA,A122LRCSBAD6DC,33LKR6A5KNLBCHLP6MM14KQMZIO1TI,5RL34,5RL34,33LKR6A5KNLBCHLP6MM14KQMZIO1TI,33LKR6A5KNLBCHLP6MM14KQMZIO1TI,338054,338054,1,0.03,"""",null,null,"<div class = fixationbox><div class = fixation>+</div></div>","""","""","""","""","""","""","""","""","2021-12-31 05:11:20",174.48.147.189,"Mozilla/5.0 (Windows NT 10.0; Win64; x64) AppleWebKit/537.36 (KHTML, like Gecko) Chrome/96.0.4664.110 Safari/537.36",WebKit,Chrome,96.0.4664.110,Windows,10.0,ac0f2dffeffaa78d35a552e03d03f0a8
31,1,"""",test_procedure,stim_test,canvas-button-response,58,148088,0.0-11.0-0.0-1.5,3PKVGQTFJQLSZOM7OKJDU84QFXXYRA,A122LRCSBAD6DC,33LKR6A5KNLBCHLP6MM14KQMZIO1TI,5RL34,5RL34,33LKR6A5KNLBCHLP6MM14KQMZIO1TI,33LKR6A5KNLBCHLP6MM14KQMZIO1TI,338054,338054,1,0.03,"""",1158.9000000953674,0,catchStim2,0,Counter-clockwise,true,"""",0.01,120,0.6,"""","2021-12-31 05:11:20",174.48.147.189,"Mozilla/5.0 (Windows NT 10.0; Win64; x64) AppleWebKit/537.36 (KHTML, like Gecko) Chrome/96.0.4664.110 Safari/537.36",WebKit,Chrome,96.0.4664.110,Windows,10.0,ac0f2dffeffaa78d35a552e03d03f0a8
31,1,"""",test_procedure,confidence_rating,html-slider-response,59,150801,0.0-11.0-0.0-2.5,3PKVGQTFJQLSZOM7OKJDU84QFXXYRA,A122LRCSBAD6DC,33LKR6A5KNLBCHLP6MM14KQMZIO1TI,5RL34,5RL34,33LKR6A5KNLBCHLP6MM14KQMZIO1TI,33LKR6A5KNLBCHLP6MM14KQMZIO1TI,338054,338054,1,0.03,"""",2709.5,82,"<div id=""message-div""><p>How confident are you that your clockwise/counter-clockwise response just now was accurate? Please rate your confidence on the slider bar below.</p></div>","""","""","""",50,"""","""","""",82,"2021-12-31 05:11:20",174.48.147.189,"Mozilla/5.0 (Windows NT 10.0; Win64; x64) AppleWebKit/537.36 (KHTML, like Gecko) Chrome/96.0.4664.110 Safari/537.36",WebKit,Chrome,96.0.4664.110,Windows,10.0,ac0f2dffeffaa78d35a552e03d03f0a8
31,1,"""",test_procedure,fixation,html-keyboard-response,60,151302,0.0-11.0-0.0-0.6,3PKVGQTFJQLSZOM7OKJDU84QFXXYRA,A122LRCSBAD6DC,33LKR6A5KNLBCHLP6MM14KQMZIO1TI,5RL34,5RL34,33LKR6A5KNLBCHLP6MM14KQMZIO1TI,33LKR6A5KNLBCHLP6MM14KQMZIO1TI,338054,338054,1,0.03,"""",null,null,"<div class = fixationbox><div class = fixation>+</div></div>","""","""","""","""","""","""","""","""","2021-12-31 05:11:20",174.48.147.189,"Mozilla/5.0 (Windows NT 10.0; Win64; x64) AppleWebKit/537.36 (KHTML, like Gecko) Chrome/96.0.4664.110 Safari/537.36",WebKit,Chrome,96.0.4664.110,Windows,10.0,ac0f2dffeffaa78d35a552e03d03f0a8
31,1,"""",test_procedure,stim_test,canvas-button-response,61,152785,0.0-11.0-0.0-1.6,3PKVGQTFJQLSZOM7OKJDU84QFXXYRA,A122LRCSBAD6DC,33LKR6A5KNLBCHLP6MM14KQMZIO1TI,5RL34,5RL34,33LKR6A5KNLBCHLP6MM14KQMZIO1TI,33LKR6A5KNLBCHLP6MM14KQMZIO1TI,338054,338054,1,0.03,"""",1449.8000001907349,0,stim3,1,Clockwise,false,"""",0.3,60,"""","""","2021-12-31 05:11:20",174.48.147.189,"Mozilla/5.0 (Windows NT 10.0; Win64; x64) AppleWebKit/537.36 (KHTML, like Gecko) Chrome/96.0.4664.110 Safari/537.36",WebKit,Chrome,96.0.4664.110,Windows,10.0,ac0f2dffeffaa78d35a552e03d03f0a8
31,1,"""",test_procedure,confidence_rating,html-slider-response,62,154977,0.0-11.0-0.0-2.6,3PKVGQTFJQLSZOM7OKJDU84QFXXYRA,A122LRCSBAD6DC,33LKR6A5KNLBCHLP6MM14KQMZIO1TI,5RL34,5RL34,33LKR6A5KNLBCHLP6MM14KQMZIO1TI,33LKR6A5KNLBCHLP6MM14KQMZIO1TI,338054,338054,1,0.03,"""",2191.4000000953674,8,"<div id=""message-div""><p>How confident are you that your clockwise/counter-clockwise response just now was accurate? Please rate your confidence on the slider bar below.</p></div>","""","""","""",50,"""","""","""",8,"2021-12-31 05:11:20",174.48.147.189,"Mozilla/5.0 (Windows NT 10.0; Win64; x64) AppleWebKit/537.36 (KHTML, like Gecko) Chrome/96.0.4664.110 Safari/537.36",WebKit,Chrome,96.0.4664.110,Windows,10.0,ac0f2dffeffaa78d35a552e03d03f0a8
31,1,"""",test_procedure,fixation,html-keyboard-response,63,155480,0.0-11.0-0.0-0.7,3PKVGQTFJQLSZOM7OKJDU84QFXXYRA,A122LRCSBAD6DC,33LKR6A5KNLBCHLP6MM14KQMZIO1TI,5RL34,5RL34,33LKR6A5KNLBCHLP6MM14KQMZIO1TI,33LKR6A5KNLBCHLP6MM14KQMZIO1TI,338054,338054,1,0.03,"""",null,null,"<div class = fixationbox><div class = fixation>+</div></div>","""","""","""","""","""","""","""","""","2021-12-31 05:11:20",174.48.147.189,"Mozilla/5.0 (Windows NT 10.0; Win64; x64) AppleWebKit/537.36 (KHTML, like Gecko) Chrome/96.0.4664.110 Safari/537.36",WebKit,Chrome,96.0.4664.110,Windows,10.0,ac0f2dffeffaa78d35a552e03d03f0a8
31,1,"""",test_procedure,stim_test,canvas-button-response,64,156300,0.0-11.0-0.0-1.7,3PKVGQTFJQLSZOM7OKJDU84QFXXYRA,A122LRCSBAD6DC,33LKR6A5KNLBCHLP6MM14KQMZIO1TI,5RL34,5RL34,33LKR6A5KNLBCHLP6MM14KQMZIO1TI,33LKR6A5KNLBCHLP6MM14KQMZIO1TI,338054,338054,1,0.03,"""",786.0999999046326,1,catchStim5,1,Clockwise,true,"""",0.3,60,0.6,"""","2021-12-31 05:11:20",174.48.147.189,"Mozilla/5.0 (Windows NT 10.0; Win64; x64) AppleWebKit/537.36 (KHTML, like Gecko) Chrome/96.0.4664.110 Safari/537.36",WebKit,Chrome,96.0.4664.110,Windows,10.0,ac0f2dffeffaa78d35a552e03d03f0a8
31,1,"""",test_procedure,confidence_rating,html-slider-response,65,158198,0.0-11.0-0.0-2.7,3PKVGQTFJQLSZOM7OKJDU84QFXXYRA,A122LRCSBAD6DC,33LKR6A5KNLBCHLP6MM14KQMZIO1TI,5RL34,5RL34,33LKR6A5KNLBCHLP6MM14KQMZIO1TI,33LKR6A5KNLBCHLP6MM14KQMZIO1TI,338054,338054,1,0.03,"""",1896.8999998569489,96,"<div id=""message-div""><p>How confident are you that your clockwise/counter-clockwise response just now was accurate? Please rate your confidence on the slider bar below.</p></div>","""","""","""",50,"""","""","""",96,"2021-12-31 05:11:20",174.48.147.189,"Mozilla/5.0 (Windows NT 10.0; Win64; x64) AppleWebKit/537.36 (KHTML, like Gecko) Chrome/96.0.4664.110 Safari/537.36",WebKit,Chrome,96.0.4664.110,Windows,10.0,ac0f2dffeffaa78d35a552e03d03f0a8
31,1,"""",test_procedure,fixation,html-keyboard-response,66,158699,0.0-11.0-0.0-0.8,3PKVGQTFJQLSZOM7OKJDU84QFXXYRA,A122LRCSBAD6DC,33LKR6A5KNLBCHLP6MM14KQMZIO1TI,5RL34,5RL34,33LKR6A5KNLBCHLP6MM14KQMZIO1TI,33LKR6A5KNLBCHLP6MM14KQMZIO1TI,338054,338054,1,0.03,"""",null,null,"<div class = fixationbox><div class = fixation>+</div></div>","""","""","""","""","""","""","""","""","2021-12-31 05:11:20",174.48.147.189,"Mozilla/5.0 (Windows NT 10.0; Win64; x64) AppleWebKit/537.36 (KHTML, like Gecko) Chrome/96.0.4664.110 Safari/537.36",WebKit,Chrome,96.0.4664.110,Windows,10.0,ac0f2dffeffaa78d35a552e03d03f0a8
31,1,"""",test_procedure,stim_test,canvas-button-response,67,159926,0.0-11.0-0.0-1.8,3PKVGQTFJQLSZOM7OKJDU84QFXXYRA,A122LRCSBAD6DC,33LKR6A5KNLBCHLP6MM14KQMZIO1TI,5RL34,5RL34,33LKR6A5KNLBCHLP6MM14KQMZIO1TI,33LKR6A5KNLBCHLP6MM14KQMZIO1TI,338054,338054,1,0.03,"""",1190.7000000476837,0,stim4,0,Counter-clockwise,true,"""",0.3,120,"""","""","2021-12-31 05:11:20",174.48.147.189,"Mozilla/5.0 (Windows NT 10.0; Win64; x64) AppleWebKit/537.36 (KHTML, like Gecko) Chrome/96.0.4664.110 Safari/537.36",WebKit,Chrome,96.0.4664.110,Windows,10.0,ac0f2dffeffaa78d35a552e03d03f0a8
31,1,"""",test_procedure,confidence_rating,html-slider-response,68,161944,0.0-11.0-0.0-2.8,3PKVGQTFJQLSZOM7OKJDU84QFXXYRA,A122LRCSBAD6DC,33LKR6A5KNLBCHLP6MM14KQMZIO1TI,5RL34,5RL34,33LKR6A5KNLBCHLP6MM14KQMZIO1TI,33LKR6A5KNLBCHLP6MM14KQMZIO1TI,338054,338054,1,0.03,"""",2016.8000001907349,19,"<div id=""message-div""><p>How confident are you that your clockwise/counter-clockwise response just now was accurate? Please rate your confidence on the slider bar below.</p></div>","""","""","""",50,"""","""","""",19,"2021-12-31 05:11:20",174.48.147.189,"Mozilla/5.0 (Windows NT 10.0; Win64; x64) AppleWebKit/537.36 (KHTML, like Gecko) Chrome/96.0.4664.110 Safari/537.36",WebKit,Chrome,96.0.4664.110,Windows,10.0,ac0f2dffeffaa78d35a552e03d03f0a8
31,1,"""",test_procedure,fixation,html-keyboard-response,69,162446,0.0-11.0-0.0-0.9,3PKVGQTFJQLSZOM7OKJDU84QFXXYRA,A122LRCSBAD6DC,33LKR6A5KNLBCHLP6MM14KQMZIO1TI,5RL34,5RL34,33LKR6A5KNLBCHLP6MM14KQMZIO1TI,33LKR6A5KNLBCHLP6MM14KQMZIO1TI,338054,338054,1,0.03,"""",null,null,"<div class = fixationbox><div class = fixation>+</div></div>","""","""","""","""","""","""","""","""","2021-12-31 05:11:20",174.48.147.189,"Mozilla/5.0 (Windows NT 10.0; Win64; x64) AppleWebKit/537.36 (KHTML, like Gecko) Chrome/96.0.4664.110 Safari/537.36",WebKit,Chrome,96.0.4664.110,Windows,10.0,ac0f2dffeffaa78d35a552e03d03f0a8
31,1,"""",test_procedure,stim_test,canvas-button-response,70,163492,0.0-11.0-0.0-1.9,3PKVGQTFJQLSZOM7OKJDU84QFXXYRA,A122LRCSBAD6DC,33LKR6A5KNLBCHLP6MM14KQMZIO1TI,5RL34,5RL34,33LKR6A5KNLBCHLP6MM14KQMZIO1TI,33LKR6A5KNLBCHLP6MM14KQMZIO1TI,338054,338054,1,0.03,"""",1011.2000000476837,0,stim4,0,Counter-clockwise,true,"""",0.3,120,"""","""","2021-12-31 05:11:20",174.48.147.189,"Mozilla/5.0 (Windows NT 10.0; Win64; x64) AppleWebKit/537.36 (KHTML, like Gecko) Chrome/96.0.4664.110 Safari/537.36",WebKit,Chrome,96.0.4664.110,Windows,10.0,ac0f2dffeffaa78d35a552e03d03f0a8
31,1,"""",test_procedure,confidence_rating,html-slider-response,71,165546,0.0-11.0-0.0-2.9,3PKVGQTFJQLSZOM7OKJDU84QFXXYRA,A122LRCSBAD6DC,33LKR6A5KNLBCHLP6MM14KQMZIO1TI,5RL34,5RL34,33LKR6A5KNLBCHLP6MM14KQMZIO1TI,33LKR6A5KNLBCHLP6MM14KQMZIO1TI,338054,338054,1,0.03,"""",2052.4000000953674,8,"<div id=""message-div""><p>How confident are you that your clockwise/counter-clockwise response just now was accurate? Please rate your confidence on the slider bar below.</p></div>","""","""","""",50,"""","""","""",8,"2021-12-31 05:11:20",174.48.147.189,"Mozilla/5.0 (Windows NT 10.0; Win64; x64) AppleWebKit/537.36 (KHTML, like Gecko) Chrome/96.0.4664.110 Safari/537.36",WebKit,Chrome,96.0.4664.110,Windows,10.0,ac0f2dffeffaa78d35a552e03d03f0a8
31,1,"""",test_procedure,fixation,html-keyboard-response,72,166048,0.0-11.0-0.0-0.10,3PKVGQTFJQLSZOM7OKJDU84QFXXYRA,A122LRCSBAD6DC,33LKR6A5KNLBCHLP6MM14KQMZIO1TI,5RL34,5RL34,33LKR6A5KNLBCHLP6MM14KQMZIO1TI,33LKR6A5KNLBCHLP6MM14KQMZIO1TI,338054,338054,1,0.03,"""",null,null,"<div class = fixationbox><div class = fixation>+</div></div>","""","""","""","""","""","""","""","""","2021-12-31 05:11:20",174.48.147.189,"Mozilla/5.0 (Windows NT 10.0; Win64; x64) AppleWebKit/537.36 (KHTML, like Gecko) Chrome/96.0.4664.110 Safari/537.36",WebKit,Chrome,96.0.4664.110,Windows,10.0,ac0f2dffeffaa78d35a552e03d03f0a8
31,1,"""",test_procedure,stim_test,canvas-button-response,73,166991,0.0-11.0-0.0-1.10,3PKVGQTFJQLSZOM7OKJDU84QFXXYRA,A122LRCSBAD6DC,33LKR6A5KNLBCHLP6MM14KQMZIO1TI,5RL34,5RL34,33LKR6A5KNLBCHLP6MM14KQMZIO1TI,33LKR6A5KNLBCHLP6MM14KQMZIO1TI,338054,338054,1,0.03,"""",910.3999998569489,1,catchStim8,0,Counter-clockwise,false,"""",0.3,120,0.001,"""","2021-12-31 05:11:20",174.48.147.189,"Mozilla/5.0 (Windows NT 10.0; Win64; x64) AppleWebKit/537.36 (KHTML, like Gecko) Chrome/96.0.4664.110 Safari/537.36",WebKit,Chrome,96.0.4664.110,Windows,10.0,ac0f2dffeffaa78d35a552e03d03f0a8
31,1,"""",test_procedure,confidence_rating,html-slider-response,74,170262,0.0-11.0-0.0-2.10,3PKVGQTFJQLSZOM7OKJDU84QFXXYRA,A122LRCSBAD6DC,33LKR6A5KNLBCHLP6MM14KQMZIO1TI,5RL34,5RL34,33LKR6A5KNLBCHLP6MM14KQMZIO1TI,33LKR6A5KNLBCHLP6MM14KQMZIO1TI,338054,338054,1,0.03,"""",3270.0999999046326,13,"<div id=""message-div""><p>How confident are you that your clockwise/counter-clockwise response just now was accurate? Please rate your confidence on the slider bar below.</p></div>","""","""","""",50,"""","""","""",13,"2021-12-31 05:11:20",174.48.147.189,"Mozilla/5.0 (Windows NT 10.0; Win64; x64) AppleWebKit/537.36 (KHTML, like Gecko) Chrome/96.0.4664.110 Safari/537.36",WebKit,Chrome,96.0.4664.110,Windows,10.0,ac0f2dffeffaa78d35a552e03d03f0a8
31,1,"""",test_procedure,fixation,html-keyboard-response,75,170766,0.0-11.0-0.0-0.11,3PKVGQTFJQLSZOM7OKJDU84QFXXYRA,A122LRCSBAD6DC,33LKR6A5KNLBCHLP6MM14KQMZIO1TI,5RL34,5RL34,33LKR6A5KNLBCHLP6MM14KQMZIO1TI,33LKR6A5KNLBCHLP6MM14KQMZIO1TI,338054,338054,1,0.03,"""",null,null,"<div class = fixationbox><div class = fixation>+</div></div>","""","""","""","""","""","""","""","""","2021-12-31 05:11:20",174.48.147.189,"Mozilla/5.0 (Windows NT 10.0; Win64; x64) AppleWebKit/537.36 (KHTML, like Gecko) Chrome/96.0.4664.110 Safari/537.36",WebKit,Chrome,96.0.4664.110,Windows,10.0,ac0f2dffeffaa78d35a552e03d03f0a8
31,1,"""",test_procedure,stim_test,canvas-button-response,76,171914,0.0-11.0-0.0-1.11,3PKVGQTFJQLSZOM7OKJDU84QFXXYRA,A122LRCSBAD6DC,33LKR6A5KNLBCHLP6MM14KQMZIO1TI,5RL34,5RL34,33LKR6A5KNLBCHLP6MM14KQMZIO1TI,33LKR6A5KNLBCHLP6MM14KQMZIO1TI,338054,338054,1,0.03,"""",1115,1,stim4,0,Counter-clockwise,false,"""",0.3,120,"""","""","2021-12-31 05:11:20",174.48.147.189,"Mozilla/5.0 (Windows NT 10.0; Win64; x64) AppleWebKit/537.36 (KHTML, like Gecko) Chrome/96.0.4664.110 Safari/537.36",WebKit,Chrome,96.0.4664.110,Windows,10.0,ac0f2dffeffaa78d35a552e03d03f0a8
31,1,"""",test_procedure,confidence_rating,html-slider-response,77,174816,0.0-11.0-0.0-2.11,3PKVGQTFJQLSZOM7OKJDU84QFXXYRA,A122LRCSBAD6DC,33LKR6A5KNLBCHLP6MM14KQMZIO1TI,5RL34,5RL34,33LKR6A5KNLBCHLP6MM14KQMZIO1TI,33LKR6A5KNLBCHLP6MM14KQMZIO1TI,338054,338054,1,0.03,"""",2901.0999999046326,10,"<div id=""message-div""><p>How confident are you that your clockwise/counter-clockwise response just now was accurate? Please rate your confidence on the slider bar below.</p></div>","""","""","""",50,"""","""","""",10,"2021-12-31 05:11:20",174.48.147.189,"Mozilla/5.0 (Windows NT 10.0; Win64; x64) AppleWebKit/537.36 (KHTML, like Gecko) Chrome/96.0.4664.110 Safari/537.36",WebKit,Chrome,96.0.4664.110,Windows,10.0,ac0f2dffeffaa78d35a552e03d03f0a8
31,1,"""",test_procedure,fixation,html-keyboard-response,78,175319,0.0-11.0-0.0-0.12,3PKVGQTFJQLSZOM7OKJDU84QFXXYRA,A122LRCSBAD6DC,33LKR6A5KNLBCHLP6MM14KQMZIO1TI,5RL34,5RL34,33LKR6A5KNLBCHLP6MM14KQMZIO1TI,33LKR6A5KNLBCHLP6MM14KQMZIO1TI,338054,338054,1,0.03,"""",null,null,"<div class = fixationbox><div class = fixation>+</div></div>","""","""","""","""","""","""","""","""","2021-12-31 05:11:20",174.48.147.189,"Mozilla/5.0 (Windows NT 10.0; Win64; x64) AppleWebKit/537.36 (KHTML, like Gecko) Chrome/96.0.4664.110 Safari/537.36",WebKit,Chrome,96.0.4664.110,Windows,10.0,ac0f2dffeffaa78d35a552e03d03f0a8
31,1,"""",test_procedure,stim_test,canvas-button-response,79,176272,0.0-11.0-0.0-1.12,3PKVGQTFJQLSZOM7OKJDU84QFXXYRA,A122LRCSBAD6DC,33LKR6A5KNLBCHLP6MM14KQMZIO1TI,5RL34,5RL34,33LKR6A5KNLBCHLP6MM14KQMZIO1TI,33LKR6A5KNLBCHLP6MM14KQMZIO1TI,338054,338054,1,0.03,"""",917.2999999523163,1,stim1,1,Clockwise,true,"""",0.01,60,"""","""","2021-12-31 05:11:20",174.48.147.189,"Mozilla/5.0 (Windows NT 10.0; Win64; x64) AppleWebKit/537.36 (KHTML, like Gecko) Chrome/96.0.4664.110 Safari/537.36",WebKit,Chrome,96.0.4664.110,Windows,10.0,ac0f2dffeffaa78d35a552e03d03f0a8
31,1,"""",test_procedure,confidence_rating,html-slider-response,80,178378,0.0-11.0-0.0-2.12,3PKVGQTFJQLSZOM7OKJDU84QFXXYRA,A122LRCSBAD6DC,33LKR6A5KNLBCHLP6MM14KQMZIO1TI,5RL34,5RL34,33LKR6A5KNLBCHLP6MM14KQMZIO1TI,33LKR6A5KNLBCHLP6MM14KQMZIO1TI,338054,338054,1,0.03,"""",2103.2999999523163,18,"<div id=""message-div""><p>How confident are you that your clockwise/counter-clockwise response just now was accurate? Please rate your confidence on the slider bar below.</p></div>","""","""","""",50,"""","""","""",18,"2021-12-31 05:11:20",174.48.147.189,"Mozilla/5.0 (Windows NT 10.0; Win64; x64) AppleWebKit/537.36 (KHTML, like Gecko) Chrome/96.0.4664.110 Safari/537.36",WebKit,Chrome,96.0.4664.110,Windows,10.0,ac0f2dffeffaa78d35a552e03d03f0a8
31,1,"""",test_procedure,fixation,html-keyboard-response,81,178879,0.0-11.0-0.0-0.13,3PKVGQTFJQLSZOM7OKJDU84QFXXYRA,A122LRCSBAD6DC,33LKR6A5KNLBCHLP6MM14KQMZIO1TI,5RL34,5RL34,33LKR6A5KNLBCHLP6MM14KQMZIO1TI,33LKR6A5KNLBCHLP6MM14KQMZIO1TI,338054,338054,1,0.03,"""",null,null,"<div class = fixationbox><div class = fixation>+</div></div>","""","""","""","""","""","""","""","""","2021-12-31 05:11:20",174.48.147.189,"Mozilla/5.0 (Windows NT 10.0; Win64; x64) AppleWebKit/537.36 (KHTML, like Gecko) Chrome/96.0.4664.110 Safari/537.36",WebKit,Chrome,96.0.4664.110,Windows,10.0,ac0f2dffeffaa78d35a552e03d03f0a8
31,1,"""",test_procedure,stim_test,canvas-button-response,82,180000,0.0-11.0-0.0-1.13,3PKVGQTFJQLSZOM7OKJDU84QFXXYRA,A122LRCSBAD6DC,33LKR6A5KNLBCHLP6MM14KQMZIO1TI,5RL34,5RL34,33LKR6A5KNLBCHLP6MM14KQMZIO1TI,33LKR6A5KNLBCHLP6MM14KQMZIO1TI,338054,338054,1,0.03,"""",1087.3000001907349,0,stim3,1,Clockwise,false,"""",0.3,60,"""","""","2021-12-31 05:11:20",174.48.147.189,"Mozilla/5.0 (Windows NT 10.0; Win64; x64) AppleWebKit/537.36 (KHTML, like Gecko) Chrome/96.0.4664.110 Safari/537.36",WebKit,Chrome,96.0.4664.110,Windows,10.0,ac0f2dffeffaa78d35a552e03d03f0a8
31,1,"""",test_procedure,confidence_rating,html-slider-response,83,181449,0.0-11.0-0.0-2.13,3PKVGQTFJQLSZOM7OKJDU84QFXXYRA,A122LRCSBAD6DC,33LKR6A5KNLBCHLP6MM14KQMZIO1TI,5RL34,5RL34,33LKR6A5KNLBCHLP6MM14KQMZIO1TI,33LKR6A5KNLBCHLP6MM14KQMZIO1TI,338054,338054,1,0.03,"""",1448.1000001430511,4,"<div id=""message-div""><p>How confident are you that your clockwise/counter-clockwise response just now was accurate? Please rate your confidence on the slider bar below.</p></div>","""","""","""",50,"""","""","""",4,"2021-12-31 05:11:20",174.48.147.189,"Mozilla/5.0 (Windows NT 10.0; Win64; x64) AppleWebKit/537.36 (KHTML, like Gecko) Chrome/96.0.4664.110 Safari/537.36",WebKit,Chrome,96.0.4664.110,Windows,10.0,ac0f2dffeffaa78d35a552e03d03f0a8
31,1,"""",test_procedure,fixation,html-keyboard-response,84,181950,0.0-11.0-0.0-0.14,3PKVGQTFJQLSZOM7OKJDU84QFXXYRA,A122LRCSBAD6DC,33LKR6A5KNLBCHLP6MM14KQMZIO1TI,5RL34,5RL34,33LKR6A5KNLBCHLP6MM14KQMZIO1TI,33LKR6A5KNLBCHLP6MM14KQMZIO1TI,338054,338054,1,0.03,"""",null,null,"<div class = fixationbox><div class = fixation>+</div></div>","""","""","""","""","""","""","""","""","2021-12-31 05:11:20",174.48.147.189,"Mozilla/5.0 (Windows NT 10.0; Win64; x64) AppleWebKit/537.36 (KHTML, like Gecko) Chrome/96.0.4664.110 Safari/537.36",WebKit,Chrome,96.0.4664.110,Windows,10.0,ac0f2dffeffaa78d35a552e03d03f0a8
31,1,"""",test_procedure,stim_test,canvas-button-response,85,182935,0.0-11.0-0.0-1.14,3PKVGQTFJQLSZOM7OKJDU84QFXXYRA,A122LRCSBAD6DC,33LKR6A5KNLBCHLP6MM14KQMZIO1TI,5RL34,5RL34,33LKR6A5KNLBCHLP6MM14KQMZIO1TI,33LKR6A5KNLBCHLP6MM14KQMZIO1TI,338054,338054,1,0.03,"""",950.2000000476837,0,catchStim3,1,Clockwise,false,"""",0.01,60,0.001,"""","2021-12-31 05:11:20",174.48.147.189,"Mozilla/5.0 (Windows NT 10.0; Win64; x64) AppleWebKit/537.36 (KHTML, like Gecko) Chrome/96.0.4664.110 Safari/537.36",WebKit,Chrome,96.0.4664.110,Windows,10.0,ac0f2dffeffaa78d35a552e03d03f0a8
31,1,"""",test_procedure,confidence_rating,html-slider-response,86,185333,0.0-11.0-0.0-2.14,3PKVGQTFJQLSZOM7OKJDU84QFXXYRA,A122LRCSBAD6DC,33LKR6A5KNLBCHLP6MM14KQMZIO1TI,5RL34,5RL34,33LKR6A5KNLBCHLP6MM14KQMZIO1TI,33LKR6A5KNLBCHLP6MM14KQMZIO1TI,338054,338054,1,0.03,"""",2396.2999999523163,7,"<div id=""message-div""><p>How confident are you that your clockwise/counter-clockwise response just now was accurate? Please rate your confidence on the slider bar below.</p></div>","""","""","""",50,"""","""","""",7,"2021-12-31 05:11:20",174.48.147.189,"Mozilla/5.0 (Windows NT 10.0; Win64; x64) AppleWebKit/537.36 (KHTML, like Gecko) Chrome/96.0.4664.110 Safari/537.36",WebKit,Chrome,96.0.4664.110,Windows,10.0,ac0f2dffeffaa78d35a552e03d03f0a8
31,1,"""",test_procedure,fixation,html-keyboard-response,87,185834,0.0-11.0-0.0-0.15,3PKVGQTFJQLSZOM7OKJDU84QFXXYRA,A122LRCSBAD6DC,33LKR6A5KNLBCHLP6MM14KQMZIO1TI,5RL34,5RL34,33LKR6A5KNLBCHLP6MM14KQMZIO1TI,33LKR6A5KNLBCHLP6MM14KQMZIO1TI,338054,338054,1,0.03,"""",null,null,"<div class = fixationbox><div class = fixation>+</div></div>","""","""","""","""","""","""","""","""","2021-12-31 05:11:20",174.48.147.189,"Mozilla/5.0 (Windows NT 10.0; Win64; x64) AppleWebKit/537.36 (KHTML, like Gecko) Chrome/96.0.4664.110 Safari/537.36",WebKit,Chrome,96.0.4664.110,Windows,10.0,ac0f2dffeffaa78d35a552e03d03f0a8
31,1,"""",test_procedure,stim_test,canvas-button-response,88,186938,0.0-11.0-0.0-1.15,3PKVGQTFJQLSZOM7OKJDU84QFXXYRA,A122LRCSBAD6DC,33LKR6A5KNLBCHLP6MM14KQMZIO1TI,5RL34,5RL34,33LKR6A5KNLBCHLP6MM14KQMZIO1TI,33LKR6A5KNLBCHLP6MM14KQMZIO1TI,338054,338054,1,0.03,"""",1066.6000001430511,1,stim1,1,Clockwise,true,"""",0.01,60,"""","""","2021-12-31 05:11:20",174.48.147.189,"Mozilla/5.0 (Windows NT 10.0; Win64; x64) AppleWebKit/537.36 (KHTML, like Gecko) Chrome/96.0.4664.110 Safari/537.36",WebKit,Chrome,96.0.4664.110,Windows,10.0,ac0f2dffeffaa78d35a552e03d03f0a8
31,1,"""",test_procedure,confidence_rating,html-slider-response,89,188951,0.0-11.0-0.0-2.15,3PKVGQTFJQLSZOM7OKJDU84QFXXYRA,A122LRCSBAD6DC,33LKR6A5KNLBCHLP6MM14KQMZIO1TI,5RL34,5RL34,33LKR6A5KNLBCHLP6MM14KQMZIO1TI,33LKR6A5KNLBCHLP6MM14KQMZIO1TI,338054,338054,1,0.03,"""",2012,11,"<div id=""message-div""><p>How confident are you that your clockwise/counter-clockwise response just now was accurate? Please rate your confidence on the slider bar below.</p></div>","""","""","""",50,"""","""","""",11,"2021-12-31 05:11:20",174.48.147.189,"Mozilla/5.0 (Windows NT 10.0; Win64; x64) AppleWebKit/537.36 (KHTML, like Gecko) Chrome/96.0.4664.110 Safari/537.36",WebKit,Chrome,96.0.4664.110,Windows,10.0,ac0f2dffeffaa78d35a552e03d03f0a8
31,1,"""",test_procedure,fixation,html-keyboard-response,90,189455,0.0-11.0-0.0-0.16,3PKVGQTFJQLSZOM7OKJDU84QFXXYRA,A122LRCSBAD6DC,33LKR6A5KNLBCHLP6MM14KQMZIO1TI,5RL34,5RL34,33LKR6A5KNLBCHLP6MM14KQMZIO1TI,33LKR6A5KNLBCHLP6MM14KQMZIO1TI,338054,338054,1,0.03,"""",null,null,"<div class = fixationbox><div class = fixation>+</div></div>","""","""","""","""","""","""","""","""","2021-12-31 05:11:20",174.48.147.189,"Mozilla/5.0 (Windows NT 10.0; Win64; x64) AppleWebKit/537.36 (KHTML, like Gecko) Chrome/96.0.4664.110 Safari/537.36",WebKit,Chrome,96.0.4664.110,Windows,10.0,ac0f2dffeffaa78d35a552e03d03f0a8
31,1,"""",test_procedure,stim_test,canvas-button-response,91,190405,0.0-11.0-0.0-1.16,3PKVGQTFJQLSZOM7OKJDU84QFXXYRA,A122LRCSBAD6DC,33LKR6A5KNLBCHLP6MM14KQMZIO1TI,5RL34,5RL34,33LKR6A5KNLBCHLP6MM14KQMZIO1TI,33LKR6A5KNLBCHLP6MM14KQMZIO1TI,338054,338054,1,0.03,"""",915.7000000476837,1,stim3,1,Clockwise,true,"""",0.3,60,"""","""","2021-12-31 05:11:20",174.48.147.189,"Mozilla/5.0 (Windows NT 10.0; Win64; x64) AppleWebKit/537.36 (KHTML, like Gecko) Chrome/96.0.4664.110 Safari/537.36",WebKit,Chrome,96.0.4664.110,Windows,10.0,ac0f2dffeffaa78d35a552e03d03f0a8
31,1,"""",test_procedure,confidence_rating,html-slider-response,92,192778,0.0-11.0-0.0-2.16,3PKVGQTFJQLSZOM7OKJDU84QFXXYRA,A122LRCSBAD6DC,33LKR6A5KNLBCHLP6MM14KQMZIO1TI,5RL34,5RL34,33LKR6A5KNLBCHLP6MM14KQMZIO1TI,33LKR6A5KNLBCHLP6MM14KQMZIO1TI,338054,338054,1,0.03,"""",2372,16,"<div id=""message-div""><p>How confident are you that your clockwise/counter-clockwise response just now was accurate? Please rate your confidence on the slider bar below.</p></div>","""","""","""",50,"""","""","""",16,"2021-12-31 05:11:20",174.48.147.189,"Mozilla/5.0 (Windows NT 10.0; Win64; x64) AppleWebKit/537.36 (KHTML, like Gecko) Chrome/96.0.4664.110 Safari/537.36",WebKit,Chrome,96.0.4664.110,Windows,10.0,ac0f2dffeffaa78d35a552e03d03f0a8
31,1,"""",test_procedure,fixation,html-keyboard-response,93,193279,0.0-11.0-0.0-0.17,3PKVGQTFJQLSZOM7OKJDU84QFXXYRA,A122LRCSBAD6DC,33LKR6A5KNLBCHLP6MM14KQMZIO1TI,5RL34,5RL34,33LKR6A5KNLBCHLP6MM14KQMZIO1TI,33LKR6A5KNLBCHLP6MM14KQMZIO1TI,338054,338054,1,0.03,"""",null,null,"<div class = fixationbox><div class = fixation>+</div></div>","""","""","""","""","""","""","""","""","2021-12-31 05:11:20",174.48.147.189,"Mozilla/5.0 (Windows NT 10.0; Win64; x64) AppleWebKit/537.36 (KHTML, like Gecko) Chrome/96.0.4664.110 Safari/537.36",WebKit,Chrome,96.0.4664.110,Windows,10.0,ac0f2dffeffaa78d35a552e03d03f0a8
31,1,"""",test_procedure,stim_test,canvas-button-response,94,194236,0.0-11.0-0.0-1.17,3PKVGQTFJQLSZOM7OKJDU84QFXXYRA,A122LRCSBAD6DC,33LKR6A5KNLBCHLP6MM14KQMZIO1TI,5RL34,5RL34,33LKR6A5KNLBCHLP6MM14KQMZIO1TI,33LKR6A5KNLBCHLP6MM14KQMZIO1TI,338054,338054,1,0.03,"""",924.7999999523163,1,stim1,1,Clockwise,true,"""",0.01,60,"""","""","2021-12-31 05:11:20",174.48.147.189,"Mozilla/5.0 (Windows NT 10.0; Win64; x64) AppleWebKit/537.36 (KHTML, like Gecko) Chrome/96.0.4664.110 Safari/537.36",WebKit,Chrome,96.0.4664.110,Windows,10.0,ac0f2dffeffaa78d35a552e03d03f0a8
31,1,"""",test_procedure,confidence_rating,html-slider-response,95,195994,0.0-11.0-0.0-2.17,3PKVGQTFJQLSZOM7OKJDU84QFXXYRA,A122LRCSBAD6DC,33LKR6A5KNLBCHLP6MM14KQMZIO1TI,5RL34,5RL34,33LKR6A5KNLBCHLP6MM14KQMZIO1TI,33LKR6A5KNLBCHLP6MM14KQMZIO1TI,338054,338054,1,0.03,"""",1757.1000001430511,9,"<div id=""message-div""><p>How confident are you that your clockwise/counter-clockwise response just now was accurate? Please rate your confidence on the slider bar below.</p></div>","""","""","""",50,"""","""","""",9,"2021-12-31 05:11:20",174.48.147.189,"Mozilla/5.0 (Windows NT 10.0; Win64; x64) AppleWebKit/537.36 (KHTML, like Gecko) Chrome/96.0.4664.110 Safari/537.36",WebKit,Chrome,96.0.4664.110,Windows,10.0,ac0f2dffeffaa78d35a552e03d03f0a8
31,1,"""",test_procedure,fixation,html-keyboard-response,96,196497,0.0-11.0-0.0-0.18,3PKVGQTFJQLSZOM7OKJDU84QFXXYRA,A122LRCSBAD6DC,33LKR6A5KNLBCHLP6MM14KQMZIO1TI,5RL34,5RL34,33LKR6A5KNLBCHLP6MM14KQMZIO1TI,33LKR6A5KNLBCHLP6MM14KQMZIO1TI,338054,338054,1,0.03,"""",null,null,"<div class = fixationbox><div class = fixation>+</div></div>","""","""","""","""","""","""","""","""","2021-12-31 05:11:20",174.48.147.189,"Mozilla/5.0 (Windows NT 10.0; Win64; x64) AppleWebKit/537.36 (KHTML, like Gecko) Chrome/96.0.4664.110 Safari/537.36",WebKit,Chrome,96.0.4664.110,Windows,10.0,ac0f2dffeffaa78d35a552e03d03f0a8
31,1,"""",test_procedure,stim_test,canvas-button-response,97,197488,0.0-11.0-0.0-1.18,3PKVGQTFJQLSZOM7OKJDU84QFXXYRA,A122LRCSBAD6DC,33LKR6A5KNLBCHLP6MM14KQMZIO1TI,5RL34,5RL34,33LKR6A5KNLBCHLP6MM14KQMZIO1TI,33LKR6A5KNLBCHLP6MM14KQMZIO1TI,338054,338054,1,0.03,"""",954.7000000476837,0,stim1,1,Clockwise,false,"""",0.01,60,"""","""","2021-12-31 05:11:20",174.48.147.189,"Mozilla/5.0 (Windows NT 10.0; Win64; x64) AppleWebKit/537.36 (KHTML, like Gecko) Chrome/96.0.4664.110 Safari/537.36",WebKit,Chrome,96.0.4664.110,Windows,10.0,ac0f2dffeffaa78d35a552e03d03f0a8
31,1,"""",test_procedure,confidence_rating,html-slider-response,98,199302,0.0-11.0-0.0-2.18,3PKVGQTFJQLSZOM7OKJDU84QFXXYRA,A122LRCSBAD6DC,33LKR6A5KNLBCHLP6MM14KQMZIO1TI,5RL34,5RL34,33LKR6A5KNLBCHLP6MM14KQMZIO1TI,33LKR6A5KNLBCHLP6MM14KQMZIO1TI,338054,338054,1,0.03,"""",1813.7000000476837,3,"<div id=""message-div""><p>How confident are you that your clockwise/counter-clockwise response just now was accurate? Please rate your confidence on the slider bar below.</p></div>","""","""","""",50,"""","""","""",3,"2021-12-31 05:11:20",174.48.147.189,"Mozilla/5.0 (Windows NT 10.0; Win64; x64) AppleWebKit/537.36 (KHTML, like Gecko) Chrome/96.0.4664.110 Safari/537.36",WebKit,Chrome,96.0.4664.110,Windows,10.0,ac0f2dffeffaa78d35a552e03d03f0a8
31,1,"""",test_procedure,fixation,html-keyboard-response,99,199803,0.0-11.0-0.0-0.19,3PKVGQTFJQLSZOM7OKJDU84QFXXYRA,A122LRCSBAD6DC,33LKR6A5KNLBCHLP6MM14KQMZIO1TI,5RL34,5RL34,33LKR6A5KNLBCHLP6MM14KQMZIO1TI,33LKR6A5KNLBCHLP6MM14KQMZIO1TI,338054,338054,1,0.03,"""",null,null,"<div class = fixationbox><div class = fixation>+</div></div>","""","""","""","""","""","""","""","""","2021-12-31 05:11:20",174.48.147.189,"Mozilla/5.0 (Windows NT 10.0; Win64; x64) AppleWebKit/537.36 (KHTML, like Gecko) Chrome/96.0.4664.110 Safari/537.36",WebKit,Chrome,96.0.4664.110,Windows,10.0,ac0f2dffeffaa78d35a552e03d03f0a8
31,1,"""",test_procedure,stim_test,canvas-button-response,100,200873,0.0-11.0-0.0-1.19,3PKVGQTFJQLSZOM7OKJDU84QFXXYRA,A122LRCSBAD6DC,33LKR6A5KNLBCHLP6MM14KQMZIO1TI,5RL34,5RL34,33LKR6A5KNLBCHLP6MM14KQMZIO1TI,33LKR6A5KNLBCHLP6MM14KQMZIO1TI,338054,338054,1,0.03,"""",1035.7999999523163,1,stim2,0,Counter-clockwise,false,"""",0.01,120,"""","""","2021-12-31 05:11:20",174.48.147.189,"Mozilla/5.0 (Windows NT 10.0; Win64; x64) AppleWebKit/537.36 (KHTML, like Gecko) Chrome/96.0.4664.110 Safari/537.36",WebKit,Chrome,96.0.4664.110,Windows,10.0,ac0f2dffeffaa78d35a552e03d03f0a8
31,1,"""",test_procedure,confidence_rating,html-slider-response,101,203875,0.0-11.0-0.0-2.19,3PKVGQTFJQLSZOM7OKJDU84QFXXYRA,A122LRCSBAD6DC,33LKR6A5KNLBCHLP6MM14KQMZIO1TI,5RL34,5RL34,33LKR6A5KNLBCHLP6MM14KQMZIO1TI,33LKR6A5KNLBCHLP6MM14KQMZIO1TI,338054,338054,1,0.03,"""",3001.399999856949,44,"<div id=""message-div""><p>How confident are you that your clockwise/counter-clockwise response just now was accurate? Please rate your confidence on the slider bar below.</p></div>","""","""","""",50,"""","""","""",44,"2021-12-31 05:11:20",174.48.147.189,"Mozilla/5.0 (Windows NT 10.0; Win64; x64) AppleWebKit/537.36 (KHTML, like Gecko) Chrome/96.0.4664.110 Safari/537.36",WebKit,Chrome,96.0.4664.110,Windows,10.0,ac0f2dffeffaa78d35a552e03d03f0a8
31,1,"""",test_procedure,fixation,html-keyboard-response,102,204379,0.0-11.0-0.0-0.20,3PKVGQTFJQLSZOM7OKJDU84QFXXYRA,A122LRCSBAD6DC,33LKR6A5KNLBCHLP6MM14KQMZIO1TI,5RL34,5RL34,33LKR6A5KNLBCHLP6MM14KQMZIO1TI,33LKR6A5KNLBCHLP6MM14KQMZIO1TI,338054,338054,1,0.03,"""",null,null,"<div class = fixationbox><div class = fixation>+</div></div>","""","""","""","""","""","""","""","""","2021-12-31 05:11:20",174.48.147.189,"Mozilla/5.0 (Windows NT 10.0; Win64; x64) AppleWebKit/537.36 (KHTML, like Gecko) Chrome/96.0.4664.110 Safari/537.36",WebKit,Chrome,96.0.4664.110,Windows,10.0,ac0f2dffeffaa78d35a552e03d03f0a8
31,1,"""",test_procedure,stim_test,canvas-button-response,103,205294,0.0-11.0-0.0-1.20,3PKVGQTFJQLSZOM7OKJDU84QFXXYRA,A122LRCSBAD6DC,33LKR6A5KNLBCHLP6MM14KQMZIO1TI,5RL34,5RL34,33LKR6A5KNLBCHLP6MM14KQMZIO1TI,33LKR6A5KNLBCHLP6MM14KQMZIO1TI,338054,338054,1,0.03,"""",880.5999999046326,0,stim4,0,Counter-clockwise,true,"""",0.3,120,"""","""","2021-12-31 05:11:20",174.48.147.189,"Mozilla/5.0 (Windows NT 10.0; Win64; x64) AppleWebKit/537.36 (KHTML, like Gecko) Chrome/96.0.4664.110 Safari/537.36",WebKit,Chrome,96.0.4664.110,Windows,10.0,ac0f2dffeffaa78d35a552e03d03f0a8
31,1,"""",test_procedure,confidence_rating,html-slider-response,104,207244,0.0-11.0-0.0-2.20,3PKVGQTFJQLSZOM7OKJDU84QFXXYRA,A122LRCSBAD6DC,33LKR6A5KNLBCHLP6MM14KQMZIO1TI,5RL34,5RL34,33LKR6A5KNLBCHLP6MM14KQMZIO1TI,33LKR6A5KNLBCHLP6MM14KQMZIO1TI,338054,338054,1,0.03,"""",1949.1000001430511,20,"<div id=""message-div""><p>How confident are you that your clockwise/counter-clockwise response just now was accurate? Please rate your confidence on the slider bar below.</p></div>","""","""","""",50,"""","""","""",20,"2021-12-31 05:11:20",174.48.147.189,"Mozilla/5.0 (Windows NT 10.0; Win64; x64) AppleWebKit/537.36 (KHTML, like Gecko) Chrome/96.0.4664.110 Safari/537.36",WebKit,Chrome,96.0.4664.110,Windows,10.0,ac0f2dffeffaa78d35a552e03d03f0a8
31,1,"""",test_procedure,fixation,html-keyboard-response,105,207745,0.0-11.0-0.0-0.21,3PKVGQTFJQLSZOM7OKJDU84QFXXYRA,A122LRCSBAD6DC,33LKR6A5KNLBCHLP6MM14KQMZIO1TI,5RL34,5RL34,33LKR6A5KNLBCHLP6MM14KQMZIO1TI,33LKR6A5KNLBCHLP6MM14KQMZIO1TI,338054,338054,1,0.03,"""",null,null,"<div class = fixationbox><div class = fixation>+</div></div>","""","""","""","""","""","""","""","""","2021-12-31 05:11:20",174.48.147.189,"Mozilla/5.0 (Windows NT 10.0; Win64; x64) AppleWebKit/537.36 (KHTML, like Gecko) Chrome/96.0.4664.110 Safari/537.36",WebKit,Chrome,96.0.4664.110,Windows,10.0,ac0f2dffeffaa78d35a552e03d03f0a8
31,1,"""",test_procedure,stim_test,canvas-button-response,106,208578,0.0-11.0-0.0-1.21,3PKVGQTFJQLSZOM7OKJDU84QFXXYRA,A122LRCSBAD6DC,33LKR6A5KNLBCHLP6MM14KQMZIO1TI,5RL34,5RL34,33LKR6A5KNLBCHLP6MM14KQMZIO1TI,33LKR6A5KNLBCHLP6MM14KQMZIO1TI,338054,338054,1,0.03,"""",794.8000001907349,0,catchStim6,0,Counter-clockwise,true,"""",0.3,120,0.6,"""","2021-12-31 05:11:20",174.48.147.189,"Mozilla/5.0 (Windows NT 10.0; Win64; x64) AppleWebKit/537.36 (KHTML, like Gecko) Chrome/96.0.4664.110 Safari/537.36",WebKit,Chrome,96.0.4664.110,Windows,10.0,ac0f2dffeffaa78d35a552e03d03f0a8
31,1,"""",test_procedure,confidence_rating,html-slider-response,107,210428,0.0-11.0-0.0-2.21,3PKVGQTFJQLSZOM7OKJDU84QFXXYRA,A122LRCSBAD6DC,33LKR6A5KNLBCHLP6MM14KQMZIO1TI,5RL34,5RL34,33LKR6A5KNLBCHLP6MM14KQMZIO1TI,33LKR6A5KNLBCHLP6MM14KQMZIO1TI,338054,338054,1,0.03,"""",1849.7999999523163,94,"<div id=""message-div""><p>How confident are you that your clockwise/counter-clockwise response just now was accurate? Please rate your confidence on the slider bar below.</p></div>","""","""","""",50,"""","""","""",94,"2021-12-31 05:11:20",174.48.147.189,"Mozilla/5.0 (Windows NT 10.0; Win64; x64) AppleWebKit/537.36 (KHTML, like Gecko) Chrome/96.0.4664.110 Safari/537.36",WebKit,Chrome,96.0.4664.110,Windows,10.0,ac0f2dffeffaa78d35a552e03d03f0a8
31,1,"""",test_procedure,fixation,html-keyboard-response,108,210931,0.0-11.0-0.0-0.22,3PKVGQTFJQLSZOM7OKJDU84QFXXYRA,A122LRCSBAD6DC,33LKR6A5KNLBCHLP6MM14KQMZIO1TI,5RL34,5RL34,33LKR6A5KNLBCHLP6MM14KQMZIO1TI,33LKR6A5KNLBCHLP6MM14KQMZIO1TI,338054,338054,1,0.03,"""",null,null,"<div class = fixationbox><div class = fixation>+</div></div>","""","""","""","""","""","""","""","""","2021-12-31 05:11:20",174.48.147.189,"Mozilla/5.0 (Windows NT 10.0; Win64; x64) AppleWebKit/537.36 (KHTML, like Gecko) Chrome/96.0.4664.110 Safari/537.36",WebKit,Chrome,96.0.4664.110,Windows,10.0,ac0f2dffeffaa78d35a552e03d03f0a8
31,1,"""",test_procedure,stim_test,canvas-button-response,109,211882,0.0-11.0-0.0-1.22,3PKVGQTFJQLSZOM7OKJDU84QFXXYRA,A122LRCSBAD6DC,33LKR6A5KNLBCHLP6MM14KQMZIO1TI,5RL34,5RL34,33LKR6A5KNLBCHLP6MM14KQMZIO1TI,33LKR6A5KNLBCHLP6MM14KQMZIO1TI,338054,338054,1,0.03,"""",914.3999998569489,0,stim3,1,Clockwise,false,"""",0.3,60,"""","""","2021-12-31 05:11:20",174.48.147.189,"Mozilla/5.0 (Windows NT 10.0; Win64; x64) AppleWebKit/537.36 (KHTML, like Gecko) Chrome/96.0.4664.110 Safari/537.36",WebKit,Chrome,96.0.4664.110,Windows,10.0,ac0f2dffeffaa78d35a552e03d03f0a8
31,1,"""",test_procedure,confidence_rating,html-slider-response,110,213707,0.0-11.0-0.0-2.22,3PKVGQTFJQLSZOM7OKJDU84QFXXYRA,A122LRCSBAD6DC,33LKR6A5KNLBCHLP6MM14KQMZIO1TI,5RL34,5RL34,33LKR6A5KNLBCHLP6MM14KQMZIO1TI,33LKR6A5KNLBCHLP6MM14KQMZIO1TI,338054,338054,1,0.03,"""",1824.2000000476837,12,"<div id=""message-div""><p>How confident are you that your clockwise/counter-clockwise response just now was accurate? Please rate your confidence on the slider bar below.</p></div>","""","""","""",50,"""","""","""",12,"2021-12-31 05:11:20",174.48.147.189,"Mozilla/5.0 (Windows NT 10.0; Win64; x64) AppleWebKit/537.36 (KHTML, like Gecko) Chrome/96.0.4664.110 Safari/537.36",WebKit,Chrome,96.0.4664.110,Windows,10.0,ac0f2dffeffaa78d35a552e03d03f0a8
31,1,"""",test_procedure,fixation,html-keyboard-response,111,214208,0.0-11.0-0.0-0.23,3PKVGQTFJQLSZOM7OKJDU84QFXXYRA,A122LRCSBAD6DC,33LKR6A5KNLBCHLP6MM14KQMZIO1TI,5RL34,5RL34,33LKR6A5KNLBCHLP6MM14KQMZIO1TI,33LKR6A5KNLBCHLP6MM14KQMZIO1TI,338054,338054,1,0.03,"""",null,null,"<div class = fixationbox><div class = fixation>+</div></div>","""","""","""","""","""","""","""","""","2021-12-31 05:11:20",174.48.147.189,"Mozilla/5.0 (Windows NT 10.0; Win64; x64) AppleWebKit/537.36 (KHTML, like Gecko) Chrome/96.0.4664.110 Safari/537.36",WebKit,Chrome,96.0.4664.110,Windows,10.0,ac0f2dffeffaa78d35a552e03d03f0a8
31,1,"""",test_procedure,stim_test,canvas-button-response,112,215261,0.0-11.0-0.0-1.23,3PKVGQTFJQLSZOM7OKJDU84QFXXYRA,A122LRCSBAD6DC,33LKR6A5KNLBCHLP6MM14KQMZIO1TI,5RL34,5RL34,33LKR6A5KNLBCHLP6MM14KQMZIO1TI,33LKR6A5KNLBCHLP6MM14KQMZIO1TI,338054,338054,1,0.03,"""",1018.8999998569489,1,catchStim7,1,Clockwise,true,"""",0.3,60,0.001,"""","2021-12-31 05:11:20",174.48.147.189,"Mozilla/5.0 (Windows NT 10.0; Win64; x64) AppleWebKit/537.36 (KHTML, like Gecko) Chrome/96.0.4664.110 Safari/537.36",WebKit,Chrome,96.0.4664.110,Windows,10.0,ac0f2dffeffaa78d35a552e03d03f0a8
31,1,"""",test_procedure,confidence_rating,html-slider-response,113,216639,0.0-11.0-0.0-2.23,3PKVGQTFJQLSZOM7OKJDU84QFXXYRA,A122LRCSBAD6DC,33LKR6A5KNLBCHLP6MM14KQMZIO1TI,5RL34,5RL34,33LKR6A5KNLBCHLP6MM14KQMZIO1TI,33LKR6A5KNLBCHLP6MM14KQMZIO1TI,338054,338054,1,0.03,"""",1376.7000000476837,6,"<div id=""message-div""><p>How confident are you that your clockwise/counter-clockwise response just now was accurate? Please rate your confidence on the slider bar below.</p></div>","""","""","""",50,"""","""","""",6,"2021-12-31 05:11:20",174.48.147.189,"Mozilla/5.0 (Windows NT 10.0; Win64; x64) AppleWebKit/537.36 (KHTML, like Gecko) Chrome/96.0.4664.110 Safari/537.36",WebKit,Chrome,96.0.4664.110,Windows,10.0,ac0f2dffeffaa78d35a552e03d03f0a8
31,1,"""",test_procedure,rest_block,html-button-response,114,221627,0.0-11.0-0.0-3.23-0.23,3PKVGQTFJQLSZOM7OKJDU84QFXXYRA,A122LRCSBAD6DC,33LKR6A5KNLBCHLP6MM14KQMZIO1TI,5RL34,5RL34,33LKR6A5KNLBCHLP6MM14KQMZIO1TI,33LKR6A5KNLBCHLP6MM14KQMZIO1TI,338054,338054,1,0.03,"""",4984.299999952316,0,"[""<p>You responded correctly on 58.33% of the trials in the previous section.</p><p>Time to take a break!</p><p>Once you're ready, press the \"Continue\" button to continue.</p>""]","""","""","""","""","""","""","""","""","2021-12-31 05:11:20",174.48.147.189,"Mozilla/5.0 (Windows NT 10.0; Win64; x64) AppleWebKit/537.36 (KHTML, like Gecko) Chrome/96.0.4664.110 Safari/537.36",WebKit,Chrome,96.0.4664.110,Windows,10.0,ac0f2dffeffaa78d35a552e03d03f0a8
31,1,"""",test_procedure,fixation,html-keyboard-response,115,222129,0.0-11.0-0.1-0.24,3PKVGQTFJQLSZOM7OKJDU84QFXXYRA,A122LRCSBAD6DC,33LKR6A5KNLBCHLP6MM14KQMZIO1TI,5RL34,5RL34,33LKR6A5KNLBCHLP6MM14KQMZIO1TI,33LKR6A5KNLBCHLP6MM14KQMZIO1TI,338054,338054,1,0.03,"""",null,null,"<div class = fixationbox><div class = fixation>+</div></div>","""","""","""","""","""","""","""","""","2021-12-31 05:11:20",174.48.147.189,"Mozilla/5.0 (Windows NT 10.0; Win64; x64) AppleWebKit/537.36 (KHTML, like Gecko) Chrome/96.0.4664.110 Safari/537.36",WebKit,Chrome,96.0.4664.110,Windows,10.0,ac0f2dffeffaa78d35a552e03d03f0a8
31,1,"""",test_procedure,stim_test,canvas-button-response,116,223012,0.0-11.0-0.1-1.24,3PKVGQTFJQLSZOM7OKJDU84QFXXYRA,A122LRCSBAD6DC,33LKR6A5KNLBCHLP6MM14KQMZIO1TI,5RL34,5RL34,33LKR6A5KNLBCHLP6MM14KQMZIO1TI,33LKR6A5KNLBCHLP6MM14KQMZIO1TI,338054,338054,1,0.03,"""",849.5,0,catchStim6,0,Counter-clockwise,true,"""",0.3,120,0.6,"""","2021-12-31 05:11:20",174.48.147.189,"Mozilla/5.0 (Windows NT 10.0; Win64; x64) AppleWebKit/537.36 (KHTML, like Gecko) Chrome/96.0.4664.110 Safari/537.36",WebKit,Chrome,96.0.4664.110,Windows,10.0,ac0f2dffeffaa78d35a552e03d03f0a8
31,1,"""",test_procedure,confidence_rating,html-slider-response,117,226045,0.0-11.0-0.1-2.24,3PKVGQTFJQLSZOM7OKJDU84QFXXYRA,A122LRCSBAD6DC,33LKR6A5KNLBCHLP6MM14KQMZIO1TI,5RL34,5RL34,33LKR6A5KNLBCHLP6MM14KQMZIO1TI,33LKR6A5KNLBCHLP6MM14KQMZIO1TI,338054,338054,1,0.03,"""",3029.0999999046326,97,"<div id=""message-div""><p>How confident are you that your clockwise/counter-clockwise response just now was accurate? Please rate your confidence on the slider bar below.</p></div>","""","""","""",50,"""","""","""",97,"2021-12-31 05:11:20",174.48.147.189,"Mozilla/5.0 (Windows NT 10.0; Win64; x64) AppleWebKit/537.36 (KHTML, like Gecko) Chrome/96.0.4664.110 Safari/537.36",WebKit,Chrome,96.0.4664.110,Windows,10.0,ac0f2dffeffaa78d35a552e03d03f0a8
31,1,"""",test_procedure,fixation,html-keyboard-response,118,226546,0.0-11.0-0.1-0.25,3PKVGQTFJQLSZOM7OKJDU84QFXXYRA,A122LRCSBAD6DC,33LKR6A5KNLBCHLP6MM14KQMZIO1TI,5RL34,5RL34,33LKR6A5KNLBCHLP6MM14KQMZIO1TI,33LKR6A5KNLBCHLP6MM14KQMZIO1TI,338054,338054,1,0.03,"""",null,null,"<div class = fixationbox><div class = fixation>+</div></div>","""","""","""","""","""","""","""","""","2021-12-31 05:11:20",174.48.147.189,"Mozilla/5.0 (Windows NT 10.0; Win64; x64) AppleWebKit/537.36 (KHTML, like Gecko) Chrome/96.0.4664.110 Safari/537.36",WebKit,Chrome,96.0.4664.110,Windows,10.0,ac0f2dffeffaa78d35a552e03d03f0a8
31,1,"""",test_procedure,stim_test,canvas-button-response,119,227578,0.0-11.0-0.1-1.25,3PKVGQTFJQLSZOM7OKJDU84QFXXYRA,A122LRCSBAD6DC,33LKR6A5KNLBCHLP6MM14KQMZIO1TI,5RL34,5RL34,33LKR6A5KNLBCHLP6MM14KQMZIO1TI,33LKR6A5KNLBCHLP6MM14KQMZIO1TI,338054,338054,1,0.03,"""",997.5999999046326,0,stim2,0,Counter-clockwise,true,"""",0.01,120,"""","""","2021-12-31 05:11:20",174.48.147.189,"Mozilla/5.0 (Windows NT 10.0; Win64; x64) AppleWebKit/537.36 (KHTML, like Gecko) Chrome/96.0.4664.110 Safari/537.36",WebKit,Chrome,96.0.4664.110,Windows,10.0,ac0f2dffeffaa78d35a552e03d03f0a8
31,1,"""",test_procedure,confidence_rating,html-slider-response,120,230443,0.0-11.0-0.1-2.25,3PKVGQTFJQLSZOM7OKJDU84QFXXYRA,A122LRCSBAD6DC,33LKR6A5KNLBCHLP6MM14KQMZIO1TI,5RL34,5RL34,33LKR6A5KNLBCHLP6MM14KQMZIO1TI,33LKR6A5KNLBCHLP6MM14KQMZIO1TI,338054,338054,1,0.03,"""",2863.7000000476837,6,"<div id=""message-div""><p>How confident are you that your clockwise/counter-clockwise response just now was accurate? Please rate your confidence on the slider bar below.</p></div>","""","""","""",50,"""","""","""",6,"2021-12-31 05:11:20",174.48.147.189,"Mozilla/5.0 (Windows NT 10.0; Win64; x64) AppleWebKit/537.36 (KHTML, like Gecko) Chrome/96.0.4664.110 Safari/537.36",WebKit,Chrome,96.0.4664.110,Windows,10.0,ac0f2dffeffaa78d35a552e03d03f0a8
31,1,"""",test_procedure,fixation,html-keyboard-response,121,230947,0.0-11.0-0.1-0.26,3PKVGQTFJQLSZOM7OKJDU84QFXXYRA,A122LRCSBAD6DC,33LKR6A5KNLBCHLP6MM14KQMZIO1TI,5RL34,5RL34,33LKR6A5KNLBCHLP6MM14KQMZIO1TI,33LKR6A5KNLBCHLP6MM14KQMZIO1TI,338054,338054,1,0.03,"""",null,null,"<div class = fixationbox><div class = fixation>+</div></div>","""","""","""","""","""","""","""","""","2021-12-31 05:11:20",174.48.147.189,"Mozilla/5.0 (Windows NT 10.0; Win64; x64) AppleWebKit/537.36 (KHTML, like Gecko) Chrome/96.0.4664.110 Safari/537.36",WebKit,Chrome,96.0.4664.110,Windows,10.0,ac0f2dffeffaa78d35a552e03d03f0a8
31,1,"""",test_procedure,stim_test,canvas-button-response,122,231887,0.0-11.0-0.1-1.26,3PKVGQTFJQLSZOM7OKJDU84QFXXYRA,A122LRCSBAD6DC,33LKR6A5KNLBCHLP6MM14KQMZIO1TI,5RL34,5RL34,33LKR6A5KNLBCHLP6MM14KQMZIO1TI,33LKR6A5KNLBCHLP6MM14KQMZIO1TI,338054,338054,1,0.03,"""",906.2999999523163,1,stim4,0,Counter-clockwise,false,"""",0.3,120,"""","""","2021-12-31 05:11:20",174.48.147.189,"Mozilla/5.0 (Windows NT 10.0; Win64; x64) AppleWebKit/537.36 (KHTML, like Gecko) Chrome/96.0.4664.110 Safari/537.36",WebKit,Chrome,96.0.4664.110,Windows,10.0,ac0f2dffeffaa78d35a552e03d03f0a8
31,1,"""",test_procedure,confidence_rating,html-slider-response,123,233656,0.0-11.0-0.1-2.26,3PKVGQTFJQLSZOM7OKJDU84QFXXYRA,A122LRCSBAD6DC,33LKR6A5KNLBCHLP6MM14KQMZIO1TI,5RL34,5RL34,33LKR6A5KNLBCHLP6MM14KQMZIO1TI,33LKR6A5KNLBCHLP6MM14KQMZIO1TI,338054,338054,1,0.03,"""",1768.6000001430511,6,"<div id=""message-div""><p>How confident are you that your clockwise/counter-clockwise response just now was accurate? Please rate your confidence on the slider bar below.</p></div>","""","""","""",50,"""","""","""",6,"2021-12-31 05:11:20",174.48.147.189,"Mozilla/5.0 (Windows NT 10.0; Win64; x64) AppleWebKit/537.36 (KHTML, like Gecko) Chrome/96.0.4664.110 Safari/537.36",WebKit,Chrome,96.0.4664.110,Windows,10.0,ac0f2dffeffaa78d35a552e03d03f0a8
31,1,"""",test_procedure,fixation,html-keyboard-response,124,234158,0.0-11.0-0.1-0.27,3PKVGQTFJQLSZOM7OKJDU84QFXXYRA,A122LRCSBAD6DC,33LKR6A5KNLBCHLP6MM14KQMZIO1TI,5RL34,5RL34,33LKR6A5KNLBCHLP6MM14KQMZIO1TI,33LKR6A5KNLBCHLP6MM14KQMZIO1TI,338054,338054,1,0.03,"""",null,null,"<div class = fixationbox><div class = fixation>+</div></div>","""","""","""","""","""","""","""","""","2021-12-31 05:11:20",174.48.147.189,"Mozilla/5.0 (Windows NT 10.0; Win64; x64) AppleWebKit/537.36 (KHTML, like Gecko) Chrome/96.0.4664.110 Safari/537.36",WebKit,Chrome,96.0.4664.110,Windows,10.0,ac0f2dffeffaa78d35a552e03d03f0a8
31,1,"""",test_procedure,stim_test,canvas-button-response,125,235132,0.0-11.0-0.1-1.27,3PKVGQTFJQLSZOM7OKJDU84QFXXYRA,A122LRCSBAD6DC,33LKR6A5KNLBCHLP6MM14KQMZIO1TI,5RL34,5RL34,33LKR6A5KNLBCHLP6MM14KQMZIO1TI,33LKR6A5KNLBCHLP6MM14KQMZIO1TI,338054,338054,1,0.03,"""",939,0,catchStim7,1,Clockwise,false,"""",0.3,60,0.001,"""","2021-12-31 05:11:20",174.48.147.189,"Mozilla/5.0 (Windows NT 10.0; Win64; x64) AppleWebKit/537.36 (KHTML, like Gecko) Chrome/96.0.4664.110 Safari/537.36",WebKit,Chrome,96.0.4664.110,Windows,10.0,ac0f2dffeffaa78d35a552e03d03f0a8
31,1,"""",test_procedure,confidence_rating,html-slider-response,126,237363,0.0-11.0-0.1-2.27,3PKVGQTFJQLSZOM7OKJDU84QFXXYRA,A122LRCSBAD6DC,33LKR6A5KNLBCHLP6MM14KQMZIO1TI,5RL34,5RL34,33LKR6A5KNLBCHLP6MM14KQMZIO1TI,33LKR6A5KNLBCHLP6MM14KQMZIO1TI,338054,338054,1,0.03,"""",2230,8,"<div id=""message-div""><p>How confident are you that your clockwise/counter-clockwise response just now was accurate? Please rate your confidence on the slider bar below.</p></div>","""","""","""",50,"""","""","""",8,"2021-12-31 05:11:20",174.48.147.189,"Mozilla/5.0 (Windows NT 10.0; Win64; x64) AppleWebKit/537.36 (KHTML, like Gecko) Chrome/96.0.4664.110 Safari/537.36",WebKit,Chrome,96.0.4664.110,Windows,10.0,ac0f2dffeffaa78d35a552e03d03f0a8
31,1,"""",test_procedure,fixation,html-keyboard-response,127,237867,0.0-11.0-0.1-0.28,3PKVGQTFJQLSZOM7OKJDU84QFXXYRA,A122LRCSBAD6DC,33LKR6A5KNLBCHLP6MM14KQMZIO1TI,5RL34,5RL34,33LKR6A5KNLBCHLP6MM14KQMZIO1TI,33LKR6A5KNLBCHLP6MM14KQMZIO1TI,338054,338054,1,0.03,"""",null,null,"<div class = fixationbox><div class = fixation>+</div></div>","""","""","""","""","""","""","""","""","2021-12-31 05:11:20",174.48.147.189,"Mozilla/5.0 (Windows NT 10.0; Win64; x64) AppleWebKit/537.36 (KHTML, like Gecko) Chrome/96.0.4664.110 Safari/537.36",WebKit,Chrome,96.0.4664.110,Windows,10.0,ac0f2dffeffaa78d35a552e03d03f0a8
31,1,"""",test_procedure,stim_test,canvas-button-response,128,238694,0.0-11.0-0.1-1.28,3PKVGQTFJQLSZOM7OKJDU84QFXXYRA,A122LRCSBAD6DC,33LKR6A5KNLBCHLP6MM14KQMZIO1TI,5RL34,5RL34,33LKR6A5KNLBCHLP6MM14KQMZIO1TI,33LKR6A5KNLBCHLP6MM14KQMZIO1TI,338054,338054,1,0.03,"""",793.3999998569489,1,catchStim1,1,Clockwise,true,"""",0.01,60,0.6,"""","2021-12-31 05:11:20",174.48.147.189,"Mozilla/5.0 (Windows NT 10.0; Win64; x64) AppleWebKit/537.36 (KHTML, like Gecko) Chrome/96.0.4664.110 Safari/537.36",WebKit,Chrome,96.0.4664.110,Windows,10.0,ac0f2dffeffaa78d35a552e03d03f0a8
31,1,"""",test_procedure,confidence_rating,html-slider-response,129,240555,0.0-11.0-0.1-2.28,3PKVGQTFJQLSZOM7OKJDU84QFXXYRA,A122LRCSBAD6DC,33LKR6A5KNLBCHLP6MM14KQMZIO1TI,5RL34,5RL34,33LKR6A5KNLBCHLP6MM14KQMZIO1TI,33LKR6A5KNLBCHLP6MM14KQMZIO1TI,338054,338054,1,0.03,"""",1859.8000001907349,99,"<div id=""message-div""><p>How confident are you that your clockwise/counter-clockwise response just now was accurate? Please rate your confidence on the slider bar below.</p></div>","""","""","""",50,"""","""","""",99,"2021-12-31 05:11:20",174.48.147.189,"Mozilla/5.0 (Windows NT 10.0; Win64; x64) AppleWebKit/537.36 (KHTML, like Gecko) Chrome/96.0.4664.110 Safari/537.36",WebKit,Chrome,96.0.4664.110,Windows,10.0,ac0f2dffeffaa78d35a552e03d03f0a8
31,1,"""",test_procedure,fixation,html-keyboard-response,130,241056,0.0-11.0-0.1-0.29,3PKVGQTFJQLSZOM7OKJDU84QFXXYRA,A122LRCSBAD6DC,33LKR6A5KNLBCHLP6MM14KQMZIO1TI,5RL34,5RL34,33LKR6A5KNLBCHLP6MM14KQMZIO1TI,33LKR6A5KNLBCHLP6MM14KQMZIO1TI,338054,338054,1,0.03,"""",null,null,"<div class = fixationbox><div class = fixation>+</div></div>","""","""","""","""","""","""","""","""","2021-12-31 05:11:20",174.48.147.189,"Mozilla/5.0 (Windows NT 10.0; Win64; x64) AppleWebKit/537.36 (KHTML, like Gecko) Chrome/96.0.4664.110 Safari/537.36",WebKit,Chrome,96.0.4664.110,Windows,10.0,ac0f2dffeffaa78d35a552e03d03f0a8
31,1,"""",test_procedure,stim_test,canvas-button-response,131,241892,0.0-11.0-0.1-1.29,3PKVGQTFJQLSZOM7OKJDU84QFXXYRA,A122LRCSBAD6DC,33LKR6A5KNLBCHLP6MM14KQMZIO1TI,5RL34,5RL34,33LKR6A5KNLBCHLP6MM14KQMZIO1TI,33LKR6A5KNLBCHLP6MM14KQMZIO1TI,338054,338054,1,0.03,"""",801.5999999046326,1,catchStim5,1,Clockwise,true,"""",0.3,60,0.6,"""","2021-12-31 05:11:20",174.48.147.189,"Mozilla/5.0 (Windows NT 10.0; Win64; x64) AppleWebKit/537.36 (KHTML, like Gecko) Chrome/96.0.4664.110 Safari/537.36",WebKit,Chrome,96.0.4664.110,Windows,10.0,ac0f2dffeffaa78d35a552e03d03f0a8
31,1,"""",test_procedure,confidence_rating,html-slider-response,132,243813,0.0-11.0-0.1-2.29,3PKVGQTFJQLSZOM7OKJDU84QFXXYRA,A122LRCSBAD6DC,33LKR6A5KNLBCHLP6MM14KQMZIO1TI,5RL34,5RL34,33LKR6A5KNLBCHLP6MM14KQMZIO1TI,33LKR6A5KNLBCHLP6MM14KQMZIO1TI,338054,338054,1,0.03,"""",1920.4000000953674,96,"<div id=""message-div""><p>How confident are you that your clockwise/counter-clockwise response just now was accurate? Please rate your confidence on the slider bar below.</p></div>","""","""","""",50,"""","""","""",96,"2021-12-31 05:11:20",174.48.147.189,"Mozilla/5.0 (Windows NT 10.0; Win64; x64) AppleWebKit/537.36 (KHTML, like Gecko) Chrome/96.0.4664.110 Safari/537.36",WebKit,Chrome,96.0.4664.110,Windows,10.0,ac0f2dffeffaa78d35a552e03d03f0a8
31,1,"""",test_procedure,fixation,html-keyboard-response,133,244317,0.0-11.0-0.1-0.30,3PKVGQTFJQLSZOM7OKJDU84QFXXYRA,A122LRCSBAD6DC,33LKR6A5KNLBCHLP6MM14KQMZIO1TI,5RL34,5RL34,33LKR6A5KNLBCHLP6MM14KQMZIO1TI,33LKR6A5KNLBCHLP6MM14KQMZIO1TI,338054,338054,1,0.03,"""",null,null,"<div class = fixationbox><div class = fixation>+</div></div>","""","""","""","""","""","""","""","""","2021-12-31 05:11:20",174.48.147.189,"Mozilla/5.0 (Windows NT 10.0; Win64; x64) AppleWebKit/537.36 (KHTML, like Gecko) Chrome/96.0.4664.110 Safari/537.36",WebKit,Chrome,96.0.4664.110,Windows,10.0,ac0f2dffeffaa78d35a552e03d03f0a8
31,1,"""",test_procedure,stim_test,canvas-button-response,134,245235,0.0-11.0-0.1-1.30,3PKVGQTFJQLSZOM7OKJDU84QFXXYRA,A122LRCSBAD6DC,33LKR6A5KNLBCHLP6MM14KQMZIO1TI,5RL34,5RL34,33LKR6A5KNLBCHLP6MM14KQMZIO1TI,33LKR6A5KNLBCHLP6MM14KQMZIO1TI,338054,338054,1,0.03,"""",885.7999999523163,0,stim1,1,Clockwise,false,"""",0.01,60,"""","""","2021-12-31 05:11:20",174.48.147.189,"Mozilla/5.0 (Windows NT 10.0; Win64; x64) AppleWebKit/537.36 (KHTML, like Gecko) Chrome/96.0.4664.110 Safari/537.36",WebKit,Chrome,96.0.4664.110,Windows,10.0,ac0f2dffeffaa78d35a552e03d03f0a8
31,1,"""",test_procedure,confidence_rating,html-slider-response,135,246959,0.0-11.0-0.1-2.30,3PKVGQTFJQLSZOM7OKJDU84QFXXYRA,A122LRCSBAD6DC,33LKR6A5KNLBCHLP6MM14KQMZIO1TI,5RL34,5RL34,33LKR6A5KNLBCHLP6MM14KQMZIO1TI,33LKR6A5KNLBCHLP6MM14KQMZIO1TI,338054,338054,1,0.03,"""",1723,4,"<div id=""message-div""><p>How confident are you that your clockwise/counter-clockwise response just now was accurate? Please rate your confidence on the slider bar below.</p></div>","""","""","""",50,"""","""","""",4,"2021-12-31 05:11:20",174.48.147.189,"Mozilla/5.0 (Windows NT 10.0; Win64; x64) AppleWebKit/537.36 (KHTML, like Gecko) Chrome/96.0.4664.110 Safari/537.36",WebKit,Chrome,96.0.4664.110,Windows,10.0,ac0f2dffeffaa78d35a552e03d03f0a8
31,1,"""",test_procedure,fixation,html-keyboard-response,136,247460,0.0-11.0-0.1-0.31,3PKVGQTFJQLSZOM7OKJDU84QFXXYRA,A122LRCSBAD6DC,33LKR6A5KNLBCHLP6MM14KQMZIO1TI,5RL34,5RL34,33LKR6A5KNLBCHLP6MM14KQMZIO1TI,33LKR6A5KNLBCHLP6MM14KQMZIO1TI,338054,338054,1,0.03,"""",null,null,"<div class = fixationbox><div class = fixation>+</div></div>","""","""","""","""","""","""","""","""","2021-12-31 05:11:20",174.48.147.189,"Mozilla/5.0 (Windows NT 10.0; Win64; x64) AppleWebKit/537.36 (KHTML, like Gecko) Chrome/96.0.4664.110 Safari/537.36",WebKit,Chrome,96.0.4664.110,Windows,10.0,ac0f2dffeffaa78d35a552e03d03f0a8
31,1,"""",test_procedure,stim_test,canvas-button-response,137,248618,0.0-11.0-0.1-1.31,3PKVGQTFJQLSZOM7OKJDU84QFXXYRA,A122LRCSBAD6DC,33LKR6A5KNLBCHLP6MM14KQMZIO1TI,5RL34,5RL34,33LKR6A5KNLBCHLP6MM14KQMZIO1TI,33LKR6A5KNLBCHLP6MM14KQMZIO1TI,338054,338054,1,0.03,"""",1118.2999999523163,1,stim3,1,Clockwise,true,"""",0.3,60,"""","""","2021-12-31 05:11:20",174.48.147.189,"Mozilla/5.0 (Windows NT 10.0; Win64; x64) AppleWebKit/537.36 (KHTML, like Gecko) Chrome/96.0.4664.110 Safari/537.36",WebKit,Chrome,96.0.4664.110,Windows,10.0,ac0f2dffeffaa78d35a552e03d03f0a8
31,1,"""",test_procedure,confidence_rating,html-slider-response,138,252493,0.0-11.0-0.1-2.31,3PKVGQTFJQLSZOM7OKJDU84QFXXYRA,A122LRCSBAD6DC,33LKR6A5KNLBCHLP6MM14KQMZIO1TI,5RL34,5RL34,33LKR6A5KNLBCHLP6MM14KQMZIO1TI,33LKR6A5KNLBCHLP6MM14KQMZIO1TI,338054,338054,1,0.03,"""",3873.600000143051,3,"<div id=""message-div""><p>How confident are you that your clockwise/counter-clockwise response just now was accurate? Please rate your confidence on the slider bar below.</p></div>","""","""","""",50,"""","""","""",3,"2021-12-31 05:11:20",174.48.147.189,"Mozilla/5.0 (Windows NT 10.0; Win64; x64) AppleWebKit/537.36 (KHTML, like Gecko) Chrome/96.0.4664.110 Safari/537.36",WebKit,Chrome,96.0.4664.110,Windows,10.0,ac0f2dffeffaa78d35a552e03d03f0a8
31,1,"""",test_procedure,fixation,html-keyboard-response,139,252997,0.0-11.0-0.1-0.32,3PKVGQTFJQLSZOM7OKJDU84QFXXYRA,A122LRCSBAD6DC,33LKR6A5KNLBCHLP6MM14KQMZIO1TI,5RL34,5RL34,33LKR6A5KNLBCHLP6MM14KQMZIO1TI,33LKR6A5KNLBCHLP6MM14KQMZIO1TI,338054,338054,1,0.03,"""",null,null,"<div class = fixationbox><div class = fixation>+</div></div>","""","""","""","""","""","""","""","""","2021-12-31 05:11:20",174.48.147.189,"Mozilla/5.0 (Windows NT 10.0; Win64; x64) AppleWebKit/537.36 (KHTML, like Gecko) Chrome/96.0.4664.110 Safari/537.36",WebKit,Chrome,96.0.4664.110,Windows,10.0,ac0f2dffeffaa78d35a552e03d03f0a8
31,1,"""",test_procedure,stim_test,canvas-button-response,140,254126,0.0-11.0-0.1-1.32,3PKVGQTFJQLSZOM7OKJDU84QFXXYRA,A122LRCSBAD6DC,33LKR6A5KNLBCHLP6MM14KQMZIO1TI,5RL34,5RL34,33LKR6A5KNLBCHLP6MM14KQMZIO1TI,33LKR6A5KNLBCHLP6MM14KQMZIO1TI,338054,338054,1,0.03,"""",1094.3999998569489,0,catchStim2,0,Counter-clockwise,true,"""",0.01,120,0.6,"""","2021-12-31 05:11:20",174.48.147.189,"Mozilla/5.0 (Windows NT 10.0; Win64; x64) AppleWebKit/537.36 (KHTML, like Gecko) Chrome/96.0.4664.110 Safari/537.36",WebKit,Chrome,96.0.4664.110,Windows,10.0,ac0f2dffeffaa78d35a552e03d03f0a8
31,1,"""",test_procedure,confidence_rating,html-slider-response,141,259142,0.0-11.0-0.1-2.32,3PKVGQTFJQLSZOM7OKJDU84QFXXYRA,A122LRCSBAD6DC,33LKR6A5KNLBCHLP6MM14KQMZIO1TI,5RL34,5RL34,33LKR6A5KNLBCHLP6MM14KQMZIO1TI,33LKR6A5KNLBCHLP6MM14KQMZIO1TI,338054,338054,1,0.03,"""",5015.200000047684,94,"<div id=""message-div""><p>How confident are you that your clockwise/counter-clockwise response just now was accurate? Please rate your confidence on the slider bar below.</p></div>","""","""","""",50,"""","""","""",94,"2021-12-31 05:11:20",174.48.147.189,"Mozilla/5.0 (Windows NT 10.0; Win64; x64) AppleWebKit/537.36 (KHTML, like Gecko) Chrome/96.0.4664.110 Safari/537.36",WebKit,Chrome,96.0.4664.110,Windows,10.0,ac0f2dffeffaa78d35a552e03d03f0a8
31,1,"""",test_procedure,fixation,html-keyboard-response,142,259644,0.0-11.0-0.1-0.33,3PKVGQTFJQLSZOM7OKJDU84QFXXYRA,A122LRCSBAD6DC,33LKR6A5KNLBCHLP6MM14KQMZIO1TI,5RL34,5RL34,33LKR6A5KNLBCHLP6MM14KQMZIO1TI,33LKR6A5KNLBCHLP6MM14KQMZIO1TI,338054,338054,1,0.03,"""",null,null,"<div class = fixationbox><div class = fixation>+</div></div>","""","""","""","""","""","""","""","""","2021-12-31 05:11:20",174.48.147.189,"Mozilla/5.0 (Windows NT 10.0; Win64; x64) AppleWebKit/537.36 (KHTML, like Gecko) Chrome/96.0.4664.110 Safari/537.36",WebKit,Chrome,96.0.4664.110,Windows,10.0,ac0f2dffeffaa78d35a552e03d03f0a8
31,1,"""",test_procedure,stim_test,canvas-button-response,143,260462,0.0-11.0-0.1-1.33,3PKVGQTFJQLSZOM7OKJDU84QFXXYRA,A122LRCSBAD6DC,33LKR6A5KNLBCHLP6MM14KQMZIO1TI,5RL34,5RL34,33LKR6A5KNLBCHLP6MM14KQMZIO1TI,33LKR6A5KNLBCHLP6MM14KQMZIO1TI,338054,338054,1,0.03,"""",780.2000000476837,0,stim1,1,Clockwise,false,"""",0.01,60,"""","""","2021-12-31 05:11:20",174.48.147.189,"Mozilla/5.0 (Windows NT 10.0; Win64; x64) AppleWebKit/537.36 (KHTML, like Gecko) Chrome/96.0.4664.110 Safari/537.36",WebKit,Chrome,96.0.4664.110,Windows,10.0,ac0f2dffeffaa78d35a552e03d03f0a8
31,1,"""",test_procedure,confidence_rating,html-slider-response,144,261920,0.0-11.0-0.1-2.33,3PKVGQTFJQLSZOM7OKJDU84QFXXYRA,A122LRCSBAD6DC,33LKR6A5KNLBCHLP6MM14KQMZIO1TI,5RL34,5RL34,33LKR6A5KNLBCHLP6MM14KQMZIO1TI,33LKR6A5KNLBCHLP6MM14KQMZIO1TI,338054,338054,1,0.03,"""",1456.3999998569489,8,"<div id=""message-div""><p>How confident are you that your clockwise/counter-clockwise response just now was accurate? Please rate your confidence on the slider bar below.</p></div>","""","""","""",50,"""","""","""",8,"2021-12-31 05:11:20",174.48.147.189,"Mozilla/5.0 (Windows NT 10.0; Win64; x64) AppleWebKit/537.36 (KHTML, like Gecko) Chrome/96.0.4664.110 Safari/537.36",WebKit,Chrome,96.0.4664.110,Windows,10.0,ac0f2dffeffaa78d35a552e03d03f0a8
31,1,"""",test_procedure,fixation,html-keyboard-response,145,262421,0.0-11.0-0.1-0.34,3PKVGQTFJQLSZOM7OKJDU84QFXXYRA,A122LRCSBAD6DC,33LKR6A5KNLBCHLP6MM14KQMZIO1TI,5RL34,5RL34,33LKR6A5KNLBCHLP6MM14KQMZIO1TI,33LKR6A5KNLBCHLP6MM14KQMZIO1TI,338054,338054,1,0.03,"""",null,null,"<div class = fixationbox><div class = fixation>+</div></div>","""","""","""","""","""","""","""","""","2021-12-31 05:11:20",174.48.147.189,"Mozilla/5.0 (Windows NT 10.0; Win64; x64) AppleWebKit/537.36 (KHTML, like Gecko) Chrome/96.0.4664.110 Safari/537.36",WebKit,Chrome,96.0.4664.110,Windows,10.0,ac0f2dffeffaa78d35a552e03d03f0a8
31,1,"""",test_procedure,stim_test,canvas-button-response,146,263492,0.0-11.0-0.1-1.34,3PKVGQTFJQLSZOM7OKJDU84QFXXYRA,A122LRCSBAD6DC,33LKR6A5KNLBCHLP6MM14KQMZIO1TI,5RL34,5RL34,33LKR6A5KNLBCHLP6MM14KQMZIO1TI,33LKR6A5KNLBCHLP6MM14KQMZIO1TI,338054,338054,1,0.03,"""",1038,0,stim2,0,Counter-clockwise,true,"""",0.01,120,"""","""","2021-12-31 05:11:20",174.48.147.189,"Mozilla/5.0 (Windows NT 10.0; Win64; x64) AppleWebKit/537.36 (KHTML, like Gecko) Chrome/96.0.4664.110 Safari/537.36",WebKit,Chrome,96.0.4664.110,Windows,10.0,ac0f2dffeffaa78d35a552e03d03f0a8
31,1,"""",test_procedure,confidence_rating,html-slider-response,147,265030,0.0-11.0-0.1-2.34,3PKVGQTFJQLSZOM7OKJDU84QFXXYRA,A122LRCSBAD6DC,33LKR6A5KNLBCHLP6MM14KQMZIO1TI,5RL34,5RL34,33LKR6A5KNLBCHLP6MM14KQMZIO1TI,33LKR6A5KNLBCHLP6MM14KQMZIO1TI,338054,338054,1,0.03,"""",1536.8000001907349,3,"<div id=""message-div""><p>How confident are you that your clockwise/counter-clockwise response just now was accurate? Please rate your confidence on the slider bar below.</p></div>","""","""","""",50,"""","""","""",3,"2021-12-31 05:11:20",174.48.147.189,"Mozilla/5.0 (Windows NT 10.0; Win64; x64) AppleWebKit/537.36 (KHTML, like Gecko) Chrome/96.0.4664.110 Safari/537.36",WebKit,Chrome,96.0.4664.110,Windows,10.0,ac0f2dffeffaa78d35a552e03d03f0a8
31,1,"""",test_procedure,fixation,html-keyboard-response,148,265532,0.0-11.0-0.1-0.35,3PKVGQTFJQLSZOM7OKJDU84QFXXYRA,A122LRCSBAD6DC,33LKR6A5KNLBCHLP6MM14KQMZIO1TI,5RL34,5RL34,33LKR6A5KNLBCHLP6MM14KQMZIO1TI,33LKR6A5KNLBCHLP6MM14KQMZIO1TI,338054,338054,1,0.03,"""",null,null,"<div class = fixationbox><div class = fixation>+</div></div>","""","""","""","""","""","""","""","""","2021-12-31 05:11:20",174.48.147.189,"Mozilla/5.0 (Windows NT 10.0; Win64; x64) AppleWebKit/537.36 (KHTML, like Gecko) Chrome/96.0.4664.110 Safari/537.36",WebKit,Chrome,96.0.4664.110,Windows,10.0,ac0f2dffeffaa78d35a552e03d03f0a8
31,1,"""",test_procedure,stim_test,canvas-button-response,149,266423,0.0-11.0-0.1-1.35,3PKVGQTFJQLSZOM7OKJDU84QFXXYRA,A122LRCSBAD6DC,33LKR6A5KNLBCHLP6MM14KQMZIO1TI,5RL34,5RL34,33LKR6A5KNLBCHLP6MM14KQMZIO1TI,33LKR6A5KNLBCHLP6MM14KQMZIO1TI,338054,338054,1,0.03,"""",855.5999999046326,1,stim1,1,Clockwise,true,"""",0.01,60,"""","""","2021-12-31 05:11:20",174.48.147.189,"Mozilla/5.0 (Windows NT 10.0; Win64; x64) AppleWebKit/537.36 (KHTML, like Gecko) Chrome/96.0.4664.110 Safari/537.36",WebKit,Chrome,96.0.4664.110,Windows,10.0,ac0f2dffeffaa78d35a552e03d03f0a8
31,1,"""",test_procedure,confidence_rating,html-slider-response,150,268170,0.0-11.0-0.1-2.35,3PKVGQTFJQLSZOM7OKJDU84QFXXYRA,A122LRCSBAD6DC,33LKR6A5KNLBCHLP6MM14KQMZIO1TI,5RL34,5RL34,33LKR6A5KNLBCHLP6MM14KQMZIO1TI,33LKR6A5KNLBCHLP6MM14KQMZIO1TI,338054,338054,1,0.03,"""",1743.3999998569489,5,"<div id=""message-div""><p>How confident are you that your clockwise/counter-clockwise response just now was accurate? Please rate your confidence on the slider bar below.</p></div>","""","""","""",50,"""","""","""",5,"2021-12-31 05:11:20",174.48.147.189,"Mozilla/5.0 (Windows NT 10.0; Win64; x64) AppleWebKit/537.36 (KHTML, like Gecko) Chrome/96.0.4664.110 Safari/537.36",WebKit,Chrome,96.0.4664.110,Windows,10.0,ac0f2dffeffaa78d35a552e03d03f0a8
31,1,"""",test_procedure,fixation,html-keyboard-response,151,268671,0.0-11.0-0.1-0.36,3PKVGQTFJQLSZOM7OKJDU84QFXXYRA,A122LRCSBAD6DC,33LKR6A5KNLBCHLP6MM14KQMZIO1TI,5RL34,5RL34,33LKR6A5KNLBCHLP6MM14KQMZIO1TI,33LKR6A5KNLBCHLP6MM14KQMZIO1TI,338054,338054,1,0.03,"""",null,null,"<div class = fixationbox><div class = fixation>+</div></div>","""","""","""","""","""","""","""","""","2021-12-31 05:11:20",174.48.147.189,"Mozilla/5.0 (Windows NT 10.0; Win64; x64) AppleWebKit/537.36 (KHTML, like Gecko) Chrome/96.0.4664.110 Safari/537.36",WebKit,Chrome,96.0.4664.110,Windows,10.0,ac0f2dffeffaa78d35a552e03d03f0a8
31,1,"""",test_procedure,stim_test,canvas-button-response,152,269719,0.0-11.0-0.1-1.36,3PKVGQTFJQLSZOM7OKJDU84QFXXYRA,A122LRCSBAD6DC,33LKR6A5KNLBCHLP6MM14KQMZIO1TI,5RL34,5RL34,33LKR6A5KNLBCHLP6MM14KQMZIO1TI,33LKR6A5KNLBCHLP6MM14KQMZIO1TI,338054,338054,1,0.03,"""",1014.5999999046326,0,stim3,1,Clockwise,false,"""",0.3,60,"""","""","2021-12-31 05:11:20",174.48.147.189,"Mozilla/5.0 (Windows NT 10.0; Win64; x64) AppleWebKit/537.36 (KHTML, like Gecko) Chrome/96.0.4664.110 Safari/537.36",WebKit,Chrome,96.0.4664.110,Windows,10.0,ac0f2dffeffaa78d35a552e03d03f0a8
31,1,"""",test_procedure,confidence_rating,html-slider-response,153,272655,0.0-11.0-0.1-2.36,3PKVGQTFJQLSZOM7OKJDU84QFXXYRA,A122LRCSBAD6DC,33LKR6A5KNLBCHLP6MM14KQMZIO1TI,5RL34,5RL34,33LKR6A5KNLBCHLP6MM14KQMZIO1TI,33LKR6A5KNLBCHLP6MM14KQMZIO1TI,338054,338054,1,0.03,"""",2935.0999999046326,1,"<div id=""message-div""><p>How confident are you that your clockwise/counter-clockwise response just now was accurate? Please rate your confidence on the slider bar below.</p></div>","""","""","""",50,"""","""","""",1,"2021-12-31 05:11:20",174.48.147.189,"Mozilla/5.0 (Windows NT 10.0; Win64; x64) AppleWebKit/537.36 (KHTML, like Gecko) Chrome/96.0.4664.110 Safari/537.36",WebKit,Chrome,96.0.4664.110,Windows,10.0,ac0f2dffeffaa78d35a552e03d03f0a8
31,1,"""",test_procedure,fixation,html-keyboard-response,154,273159,0.0-11.0-0.1-0.37,3PKVGQTFJQLSZOM7OKJDU84QFXXYRA,A122LRCSBAD6DC,33LKR6A5KNLBCHLP6MM14KQMZIO1TI,5RL34,5RL34,33LKR6A5KNLBCHLP6MM14KQMZIO1TI,33LKR6A5KNLBCHLP6MM14KQMZIO1TI,338054,338054,1,0.03,"""",null,null,"<div class = fixationbox><div class = fixation>+</div></div>","""","""","""","""","""","""","""","""","2021-12-31 05:11:20",174.48.147.189,"Mozilla/5.0 (Windows NT 10.0; Win64; x64) AppleWebKit/537.36 (KHTML, like Gecko) Chrome/96.0.4664.110 Safari/537.36",WebKit,Chrome,96.0.4664.110,Windows,10.0,ac0f2dffeffaa78d35a552e03d03f0a8
31,1,"""",test_procedure,stim_test,canvas-button-response,155,274143,0.0-11.0-0.1-1.37,3PKVGQTFJQLSZOM7OKJDU84QFXXYRA,A122LRCSBAD6DC,33LKR6A5KNLBCHLP6MM14KQMZIO1TI,5RL34,5RL34,33LKR6A5KNLBCHLP6MM14KQMZIO1TI,33LKR6A5KNLBCHLP6MM14KQMZIO1TI,338054,338054,1,0.03,"""",951.5999999046326,0,catchStim4,0,Counter-clockwise,true,"""",0.01,120,0.001,"""","2021-12-31 05:11:20",174.48.147.189,"Mozilla/5.0 (Windows NT 10.0; Win64; x64) AppleWebKit/537.36 (KHTML, like Gecko) Chrome/96.0.4664.110 Safari/537.36",WebKit,Chrome,96.0.4664.110,Windows,10.0,ac0f2dffeffaa78d35a552e03d03f0a8
