run_id,condition,success,exp_stage,trial_id,trial_type,trial_index,time_elapsed,internal_node_id,hitId,workerId,assignmentId,a,tp_a,b,tp_b,c,tp_c,conditionmyown,cen_signal_contrast_stim,view_history,rt,response,stimulus,correct_response,correct_response_in_clockwise_or_counterclockwise,correct,slider_start,ctx_signal_contrast,cen_angle_in_degree,cen_signal_contrast_catchStim,confidence,recorded_at,ip,user_agent,device,browser,browser_version,platform,platform_version,source_code_version
13,1,true,pre-exp,fullscreen_starts,fullscreen,0,9733,0.0-0.0,3SD15I2WEBVYX2RZ7BNPTJHHA9P63F,A13FTIHWW9GE8X,3K772S5NPHCKR9O6IG0RXL6SDXXEH4,N27K4,N27K4,3K772S5NPHCKR9O6IG0RXL6SDXXEH4,3K772S5NPHCKR9O6IG0RXL6SDXXEH4,338054,338054,1,0.03,"""","""","""","""","""","""","""","""","""","""","""","""","2021-12-31 03:30:02",73.168.250.133,"Mozilla/5.0 (Windows NT 10.0; Win64; x64) AppleWebKit/537.36 (KHTML, like Gecko) Chrome/96.0.4664.110 Safari/537.36",WebKit,Chrome,96.0.4664.110,Windows,10.0,ac0f2dffeffaa78d35a552e03d03f0a8
13,1,"""",pre-exp,instructionspage1,instructions,1,13853,0.0-1.0-0.0,3SD15I2WEBVYX2RZ7BNPTJHHA9P63F,A13FTIHWW9GE8X,3K772S5NPHCKR9O6IG0RXL6SDXXEH4,N27K4,N27K4,3K772S5NPHCKR9O6IG0RXL6SDXXEH4,3K772S5NPHCKR9O6IG0RXL6SDXXEH4,338054,338054,1,0.03,"[{""page_index"":0,""viewing_time"":4110.599999904633}]",4110.899999976158,"""","""","""","""","""","""","""","""","""","""","2021-12-31 03:30:02",73.168.250.133,"Mozilla/5.0 (Windows NT 10.0; Win64; x64) AppleWebKit/537.36 (KHTML, like Gecko) Chrome/96.0.4664.110 Safari/537.36",WebKit,Chrome,96.0.4664.110,Windows,10.0,ac0f2dffeffaa78d35a552e03d03f0a8
13,1,"""",pre-exp,instructions_block2,canvas-button-response,2,48698,0.0-2.0-0.0-0.0,3SD15I2WEBVYX2RZ7BNPTJHHA9P63F,A13FTIHWW9GE8X,3K772S5NPHCKR9O6IG0RXL6SDXXEH4,N27K4,N27K4,3K772S5NPHCKR9O6IG0RXL6SDXXEH4,3K772S5NPHCKR9O6IG0RXL6SDXXEH4,338054,338054,1,0.03,"""",34755.10000002384,1,instructionStim1,1,Clockwise,true,"""","""","""","""","""","2021-12-31 03:30:02",73.168.250.133,"Mozilla/5.0 (Windows NT 10.0; Win64; x64) AppleWebKit/537.36 (KHTML, like Gecko) Chrome/96.0.4664.110 Safari/537.36",WebKit,Chrome,96.0.4664.110,Windows,10.0,ac0f2dffeffaa78d35a552e03d03f0a8
13,1,"""",pre-exp,instructions_block3,canvas-button-response,3,57036,0.0-3.0-0.0-0.0,3SD15I2WEBVYX2RZ7BNPTJHHA9P63F,A13FTIHWW9GE8X,3K772S5NPHCKR9O6IG0RXL6SDXXEH4,N27K4,N27K4,3K772S5NPHCKR9O6IG0RXL6SDXXEH4,3K772S5NPHCKR9O6IG0RXL6SDXXEH4,338054,338054,1,0.03,"""",8266.600000023842,0,instructionStim2,0,Counter-clockwise,true,"""","""","""","""","""","2021-12-31 03:30:02",73.168.250.133,"Mozilla/5.0 (Windows NT 10.0; Win64; x64) AppleWebKit/537.36 (KHTML, like Gecko) Chrome/96.0.4664.110 Safari/537.36",WebKit,Chrome,96.0.4664.110,Windows,10.0,ac0f2dffeffaa78d35a552e03d03f0a8
13,1,"""",pre-exp,instructions_block4,html-slider-response,4,84634,0.0-4.0,3SD15I2WEBVYX2RZ7BNPTJHHA9P63F,A13FTIHWW9GE8X,3K772S5NPHCKR9O6IG0RXL6SDXXEH4,N27K4,N27K4,3K772S5NPHCKR9O6IG0RXL6SDXXEH4,3K772S5NPHCKR9O6IG0RXL6SDXXEH4,338054,338054,1,0.03,"""",27594.899999976158,29,"<div id=""message-div""><p>After you have made your clockwise/counter-clockwise choice, <br>you will be asked to rate how confident you are that you were correct in your clockwise/counter-clockwise choice using a slide bar.<br>Please try to use the entire range of the slider bar.<br>For example, feel free to move the slider to the leftmost location if you are extremely uncertain about your choice, and the rightmost location if you are extremely certain.</p></div>","""","""","""",50,"""","""","""","""","2021-12-31 03:30:02",73.168.250.133,"Mozilla/5.0 (Windows NT 10.0; Win64; x64) AppleWebKit/537.36 (KHTML, like Gecko) Chrome/96.0.4664.110 Safari/537.36",WebKit,Chrome,96.0.4664.110,Windows,10.0,ac0f2dffeffaa78d35a552e03d03f0a8
13,1,"""",pre-exp,instructionspage5,instructions,5,94652,0.0-5.0-0.0,3SD15I2WEBVYX2RZ7BNPTJHHA9P63F,A13FTIHWW9GE8X,3K772S5NPHCKR9O6IG0RXL6SDXXEH4,N27K4,N27K4,3K772S5NPHCKR9O6IG0RXL6SDXXEH4,3K772S5NPHCKR9O6IG0RXL6SDXXEH4,338054,338054,1,0.03,"[{""page_index"":0,""viewing_time"":10015.899999976158}]",10016.200000047684,"""","""","""","""","""","""","""","""","""","""","2021-12-31 03:30:02",73.168.250.133,"Mozilla/5.0 (Windows NT 10.0; Win64; x64) AppleWebKit/537.36 (KHTML, like Gecko) Chrome/96.0.4664.110 Safari/537.36",WebKit,Chrome,96.0.4664.110,Windows,10.0,ac0f2dffeffaa78d35a552e03d03f0a8
13,1,"""",pre-exp,instructionspage6,instructions,6,98416,0.0-6.0-0.0,3SD15I2WEBVYX2RZ7BNPTJHHA9P63F,A13FTIHWW9GE8X,3K772S5NPHCKR9O6IG0RXL6SDXXEH4,N27K4,N27K4,3K772S5NPHCKR9O6IG0RXL6SDXXEH4,3K772S5NPHCKR9O6IG0RXL6SDXXEH4,338054,338054,1,0.03,"[{""page_index"":0,""viewing_time"":3762.600000023842}]",3762.899999976158,"""","""","""","""","""","""","""","""","""","""","2021-12-31 03:30:02",73.168.250.133,"Mozilla/5.0 (Windows NT 10.0; Win64; x64) AppleWebKit/537.36 (KHTML, like Gecko) Chrome/96.0.4664.110 Safari/537.36",WebKit,Chrome,96.0.4664.110,Windows,10.0,ac0f2dffeffaa78d35a552e03d03f0a8
13,1,"""",pre-exp,instructionspage7,instructions,7,110098,0.0-7.0-0.0,3SD15I2WEBVYX2RZ7BNPTJHHA9P63F,A13FTIHWW9GE8X,3K772S5NPHCKR9O6IG0RXL6SDXXEH4,N27K4,N27K4,3K772S5NPHCKR9O6IG0RXL6SDXXEH4,3K772S5NPHCKR9O6IG0RXL6SDXXEH4,338054,338054,1,0.03,"[{""page_index"":0,""viewing_time"":11680.399999976158}]",11680.600000023842,"""","""","""","""","""","""","""","""","""","""","2021-12-31 03:30:02",73.168.250.133,"Mozilla/5.0 (Windows NT 10.0; Win64; x64) AppleWebKit/537.36 (KHTML, like Gecko) Chrome/96.0.4664.110 Safari/537.36",WebKit,Chrome,96.0.4664.110,Windows,10.0,ac0f2dffeffaa78d35a552e03d03f0a8
13,1,"""",pre-exp,instructionspage8,instructions,8,113972,0.0-8.0-0.0,3SD15I2WEBVYX2RZ7BNPTJHHA9P63F,A13FTIHWW9GE8X,3K772S5NPHCKR9O6IG0RXL6SDXXEH4,N27K4,N27K4,3K772S5NPHCKR9O6IG0RXL6SDXXEH4,3K772S5NPHCKR9O6IG0RXL6SDXXEH4,338054,338054,1,0.03,"[{""page_index"":0,""viewing_time"":3873.0999999046326}]",3873.2999999523163,"""","""","""","""","""","""","""","""","""","""","2021-12-31 03:30:02",73.168.250.133,"Mozilla/5.0 (Windows NT 10.0; Win64; x64) AppleWebKit/537.36 (KHTML, like Gecko) Chrome/96.0.4664.110 Safari/537.36",WebKit,Chrome,96.0.4664.110,Windows,10.0,ac0f2dffeffaa78d35a552e03d03f0a8
13,1,"""",practice_procedure,fixation,html-keyboard-response,9,114475,0.0-9.0-0.0-0.0,3SD15I2WEBVYX2RZ7BNPTJHHA9P63F,A13FTIHWW9GE8X,3K772S5NPHCKR9O6IG0RXL6SDXXEH4,N27K4,N27K4,3K772S5NPHCKR9O6IG0RXL6SDXXEH4,3K772S5NPHCKR9O6IG0RXL6SDXXEH4,338054,338054,1,0.03,"""",null,null,"<div class = fixationbox><div class = fixation>+</div></div>","""","""","""","""","""","""","""","""","2021-12-31 03:30:02",73.168.250.133,"Mozilla/5.0 (Windows NT 10.0; Win64; x64) AppleWebKit/537.36 (KHTML, like Gecko) Chrome/96.0.4664.110 Safari/537.36",WebKit,Chrome,96.0.4664.110,Windows,10.0,ac0f2dffeffaa78d35a552e03d03f0a8
13,1,"""",practice_procedure,stim_practice,canvas-button-response,10,116844,0.0-9.0-0.0-1.0,3SD15I2WEBVYX2RZ7BNPTJHHA9P63F,A13FTIHWW9GE8X,3K772S5NPHCKR9O6IG0RXL6SDXXEH4,N27K4,N27K4,3K772S5NPHCKR9O6IG0RXL6SDXXEH4,3K772S5NPHCKR9O6IG0RXL6SDXXEH4,338054,338054,1,0.03,"""",2265.7999999523163,1,practiceStim4,0,Counter-clockwise,false,"""",0.3,120,0.99,"""","2021-12-31 03:30:02",73.168.250.133,"Mozilla/5.0 (Windows NT 10.0; Win64; x64) AppleWebKit/537.36 (KHTML, like Gecko) Chrome/96.0.4664.110 Safari/537.36",WebKit,Chrome,96.0.4664.110,Windows,10.0,ac0f2dffeffaa78d35a552e03d03f0a8
13,1,"""",practice_procedure,confidence_rating,html-slider-response,11,120310,0.0-9.0-0.0-2.0,3SD15I2WEBVYX2RZ7BNPTJHHA9P63F,A13FTIHWW9GE8X,3K772S5NPHCKR9O6IG0RXL6SDXXEH4,N27K4,N27K4,3K772S5NPHCKR9O6IG0RXL6SDXXEH4,3K772S5NPHCKR9O6IG0RXL6SDXXEH4,338054,338054,1,0.03,"""",3464.899999976158,38,"<div id=""message-div""><p>How confident are you that your clockwise/counter-clockwise response just now was accurate? Please rate your confidence on the slider bar below.</p></div>","""","""","""",50,"""","""","""",38,"2021-12-31 03:30:02",73.168.250.133,"Mozilla/5.0 (Windows NT 10.0; Win64; x64) AppleWebKit/537.36 (KHTML, like Gecko) Chrome/96.0.4664.110 Safari/537.36",WebKit,Chrome,96.0.4664.110,Windows,10.0,ac0f2dffeffaa78d35a552e03d03f0a8
13,1,"""",practice_procedure,fixation,html-keyboard-response,12,120813,0.0-9.0-0.0-0.1,3SD15I2WEBVYX2RZ7BNPTJHHA9P63F,A13FTIHWW9GE8X,3K772S5NPHCKR9O6IG0RXL6SDXXEH4,N27K4,N27K4,3K772S5NPHCKR9O6IG0RXL6SDXXEH4,3K772S5NPHCKR9O6IG0RXL6SDXXEH4,338054,338054,1,0.03,"""",null,null,"<div class = fixationbox><div class = fixation>+</div></div>","""","""","""","""","""","""","""","""","2021-12-31 03:30:02",73.168.250.133,"Mozilla/5.0 (Windows NT 10.0; Win64; x64) AppleWebKit/537.36 (KHTML, like Gecko) Chrome/96.0.4664.110 Safari/537.36",WebKit,Chrome,96.0.4664.110,Windows,10.0,ac0f2dffeffaa78d35a552e03d03f0a8
13,1,"""",practice_procedure,stim_practice,canvas-button-response,13,123064,0.0-9.0-0.0-1.1,3SD15I2WEBVYX2RZ7BNPTJHHA9P63F,A13FTIHWW9GE8X,3K772S5NPHCKR9O6IG0RXL6SDXXEH4,N27K4,N27K4,3K772S5NPHCKR9O6IG0RXL6SDXXEH4,3K772S5NPHCKR9O6IG0RXL6SDXXEH4,338054,338054,1,0.03,"""",2176.2000000476837,1,practiceStim4,0,Counter-clockwise,false,"""",0.3,120,0.99,"""","2021-12-31 03:30:02",73.168.250.133,"Mozilla/5.0 (Windows NT 10.0; Win64; x64) AppleWebKit/537.36 (KHTML, like Gecko) Chrome/96.0.4664.110 Safari/537.36",WebKit,Chrome,96.0.4664.110,Windows,10.0,ac0f2dffeffaa78d35a552e03d03f0a8
13,1,"""",practice_procedure,confidence_rating,html-slider-response,14,126194,0.0-9.0-0.0-2.1,3SD15I2WEBVYX2RZ7BNPTJHHA9P63F,A13FTIHWW9GE8X,3K772S5NPHCKR9O6IG0RXL6SDXXEH4,N27K4,N27K4,3K772S5NPHCKR9O6IG0RXL6SDXXEH4,3K772S5NPHCKR9O6IG0RXL6SDXXEH4,338054,338054,1,0.03,"""",3128.9000000953674,50,"<div id=""message-div""><p>How confident are you that your clockwise/counter-clockwise response just now was accurate? Please rate your confidence on the slider bar below.</p></div>","""","""","""",50,"""","""","""",50,"2021-12-31 03:30:02",73.168.250.133,"Mozilla/5.0 (Windows NT 10.0; Win64; x64) AppleWebKit/537.36 (KHTML, like Gecko) Chrome/96.0.4664.110 Safari/537.36",WebKit,Chrome,96.0.4664.110,Windows,10.0,ac0f2dffeffaa78d35a552e03d03f0a8
13,1,"""",practice_procedure,fixation,html-keyboard-response,15,126702,0.0-9.0-0.0-0.2,3SD15I2WEBVYX2RZ7BNPTJHHA9P63F,A13FTIHWW9GE8X,3K772S5NPHCKR9O6IG0RXL6SDXXEH4,N27K4,N27K4,3K772S5NPHCKR9O6IG0RXL6SDXXEH4,3K772S5NPHCKR9O6IG0RXL6SDXXEH4,338054,338054,1,0.03,"""",null,null,"<div class = fixationbox><div class = fixation>+</div></div>","""","""","""","""","""","""","""","""","2021-12-31 03:30:02",73.168.250.133,"Mozilla/5.0 (Windows NT 10.0; Win64; x64) AppleWebKit/537.36 (KHTML, like Gecko) Chrome/96.0.4664.110 Safari/537.36",WebKit,Chrome,96.0.4664.110,Windows,10.0,ac0f2dffeffaa78d35a552e03d03f0a8
13,1,"""",practice_procedure,stim_practice,canvas-button-response,16,128218,0.0-9.0-0.0-1.2,3SD15I2WEBVYX2RZ7BNPTJHHA9P63F,A13FTIHWW9GE8X,3K772S5NPHCKR9O6IG0RXL6SDXXEH4,N27K4,N27K4,3K772S5NPHCKR9O6IG0RXL6SDXXEH4,3K772S5NPHCKR9O6IG0RXL6SDXXEH4,338054,338054,1,0.03,"""",1480.8999999761581,0,practiceStim3,1,Clockwise,false,"""",0.3,60,0.99,"""","2021-12-31 03:30:02",73.168.250.133,"Mozilla/5.0 (Windows NT 10.0; Win64; x64) AppleWebKit/537.36 (KHTML, like Gecko) Chrome/96.0.4664.110 Safari/537.36",WebKit,Chrome,96.0.4664.110,Windows,10.0,ac0f2dffeffaa78d35a552e03d03f0a8
13,1,"""",practice_procedure,confidence_rating,html-slider-response,17,130948,0.0-9.0-0.0-2.2,3SD15I2WEBVYX2RZ7BNPTJHHA9P63F,A13FTIHWW9GE8X,3K772S5NPHCKR9O6IG0RXL6SDXXEH4,N27K4,N27K4,3K772S5NPHCKR9O6IG0RXL6SDXXEH4,3K772S5NPHCKR9O6IG0RXL6SDXXEH4,338054,338054,1,0.03,"""",2729.1999999284744,48,"<div id=""message-div""><p>How confident are you that your clockwise/counter-clockwise response just now was accurate? Please rate your confidence on the slider bar below.</p></div>","""","""","""",50,"""","""","""",48,"2021-12-31 03:30:02",73.168.250.133,"Mozilla/5.0 (Windows NT 10.0; Win64; x64) AppleWebKit/537.36 (KHTML, like Gecko) Chrome/96.0.4664.110 Safari/537.36",WebKit,Chrome,96.0.4664.110,Windows,10.0,ac0f2dffeffaa78d35a552e03d03f0a8
13,1,"""",practice_procedure,fixation,html-keyboard-response,18,131449,0.0-9.0-0.0-0.3,3SD15I2WEBVYX2RZ7BNPTJHHA9P63F,A13FTIHWW9GE8X,3K772S5NPHCKR9O6IG0RXL6SDXXEH4,N27K4,N27K4,3K772S5NPHCKR9O6IG0RXL6SDXXEH4,3K772S5NPHCKR9O6IG0RXL6SDXXEH4,338054,338054,1,0.03,"""",null,null,"<div class = fixationbox><div class = fixation>+</div></div>","""","""","""","""","""","""","""","""","2021-12-31 03:30:02",73.168.250.133,"Mozilla/5.0 (Windows NT 10.0; Win64; x64) AppleWebKit/537.36 (KHTML, like Gecko) Chrome/96.0.4664.110 Safari/537.36",WebKit,Chrome,96.0.4664.110,Windows,10.0,ac0f2dffeffaa78d35a552e03d03f0a8
13,1,"""",practice_procedure,stim_practice,canvas-button-response,19,132932,0.0-9.0-0.0-1.3,3SD15I2WEBVYX2RZ7BNPTJHHA9P63F,A13FTIHWW9GE8X,3K772S5NPHCKR9O6IG0RXL6SDXXEH4,N27K4,N27K4,3K772S5NPHCKR9O6IG0RXL6SDXXEH4,3K772S5NPHCKR9O6IG0RXL6SDXXEH4,338054,338054,1,0.03,"""",1441.0999999046326,1,practiceStim4,0,Counter-clockwise,false,"""",0.3,120,0.99,"""","2021-12-31 03:30:02",73.168.250.133,"Mozilla/5.0 (Windows NT 10.0; Win64; x64) AppleWebKit/537.36 (KHTML, like Gecko) Chrome/96.0.4664.110 Safari/537.36",WebKit,Chrome,96.0.4664.110,Windows,10.0,ac0f2dffeffaa78d35a552e03d03f0a8
13,1,"""",practice_procedure,confidence_rating,html-slider-response,20,135386,0.0-9.0-0.0-2.3,3SD15I2WEBVYX2RZ7BNPTJHHA9P63F,A13FTIHWW9GE8X,3K772S5NPHCKR9O6IG0RXL6SDXXEH4,N27K4,N27K4,3K772S5NPHCKR9O6IG0RXL6SDXXEH4,3K772S5NPHCKR9O6IG0RXL6SDXXEH4,338054,338054,1,0.03,"""",2451.600000023842,52,"<div id=""message-div""><p>How confident are you that your clockwise/counter-clockwise response just now was accurate? Please rate your confidence on the slider bar below.</p></div>","""","""","""",50,"""","""","""",52,"2021-12-31 03:30:02",73.168.250.133,"Mozilla/5.0 (Windows NT 10.0; Win64; x64) AppleWebKit/537.36 (KHTML, like Gecko) Chrome/96.0.4664.110 Safari/537.36",WebKit,Chrome,96.0.4664.110,Windows,10.0,ac0f2dffeffaa78d35a552e03d03f0a8
13,1,"""",practice_procedure,fixation,html-keyboard-response,21,135887,0.0-9.0-0.0-0.4,3SD15I2WEBVYX2RZ7BNPTJHHA9P63F,A13FTIHWW9GE8X,3K772S5NPHCKR9O6IG0RXL6SDXXEH4,N27K4,N27K4,3K772S5NPHCKR9O6IG0RXL6SDXXEH4,3K772S5NPHCKR9O6IG0RXL6SDXXEH4,338054,338054,1,0.03,"""",null,null,"<div class = fixationbox><div class = fixation>+</div></div>","""","""","""","""","""","""","""","""","2021-12-31 03:30:02",73.168.250.133,"Mozilla/5.0 (Windows NT 10.0; Win64; x64) AppleWebKit/537.36 (KHTML, like Gecko) Chrome/96.0.4664.110 Safari/537.36",WebKit,Chrome,96.0.4664.110,Windows,10.0,ac0f2dffeffaa78d35a552e03d03f0a8
13,1,"""",practice_procedure,stim_practice,canvas-button-response,22,137458,0.0-9.0-0.0-1.4,3SD15I2WEBVYX2RZ7BNPTJHHA9P63F,A13FTIHWW9GE8X,3K772S5NPHCKR9O6IG0RXL6SDXXEH4,N27K4,N27K4,3K772S5NPHCKR9O6IG0RXL6SDXXEH4,3K772S5NPHCKR9O6IG0RXL6SDXXEH4,338054,338054,1,0.03,"""",1522,1,practiceStim3,1,Clockwise,true,"""",0.3,60,0.99,"""","2021-12-31 03:30:02",73.168.250.133,"Mozilla/5.0 (Windows NT 10.0; Win64; x64) AppleWebKit/537.36 (KHTML, like Gecko) Chrome/96.0.4664.110 Safari/537.36",WebKit,Chrome,96.0.4664.110,Windows,10.0,ac0f2dffeffaa78d35a552e03d03f0a8
13,1,"""",practice_procedure,confidence_rating,html-slider-response,23,140086,0.0-9.0-0.0-2.4,3SD15I2WEBVYX2RZ7BNPTJHHA9P63F,A13FTIHWW9GE8X,3K772S5NPHCKR9O6IG0RXL6SDXXEH4,N27K4,N27K4,3K772S5NPHCKR9O6IG0RXL6SDXXEH4,3K772S5NPHCKR9O6IG0RXL6SDXXEH4,338054,338054,1,0.03,"""",2627.100000023842,51,"<div id=""message-div""><p>How confident are you that your clockwise/counter-clockwise response just now was accurate? Please rate your confidence on the slider bar below.</p></div>","""","""","""",50,"""","""","""",51,"2021-12-31 03:30:02",73.168.250.133,"Mozilla/5.0 (Windows NT 10.0; Win64; x64) AppleWebKit/537.36 (KHTML, like Gecko) Chrome/96.0.4664.110 Safari/537.36",WebKit,Chrome,96.0.4664.110,Windows,10.0,ac0f2dffeffaa78d35a552e03d03f0a8
13,1,"""",practice_procedure,fixation,html-keyboard-response,24,140590,0.0-9.0-0.0-0.5,3SD15I2WEBVYX2RZ7BNPTJHHA9P63F,A13FTIHWW9GE8X,3K772S5NPHCKR9O6IG0RXL6SDXXEH4,N27K4,N27K4,3K772S5NPHCKR9O6IG0RXL6SDXXEH4,3K772S5NPHCKR9O6IG0RXL6SDXXEH4,338054,338054,1,0.03,"""",null,null,"<div class = fixationbox><div class = fixation>+</div></div>","""","""","""","""","""","""","""","""","2021-12-31 03:30:02",73.168.250.133,"Mozilla/5.0 (Windows NT 10.0; Win64; x64) AppleWebKit/537.36 (KHTML, like Gecko) Chrome/96.0.4664.110 Safari/537.36",WebKit,Chrome,96.0.4664.110,Windows,10.0,ac0f2dffeffaa78d35a552e03d03f0a8
13,1,"""",practice_procedure,stim_practice,canvas-button-response,25,142062,0.0-9.0-0.0-1.5,3SD15I2WEBVYX2RZ7BNPTJHHA9P63F,A13FTIHWW9GE8X,3K772S5NPHCKR9O6IG0RXL6SDXXEH4,N27K4,N27K4,3K772S5NPHCKR9O6IG0RXL6SDXXEH4,3K772S5NPHCKR9O6IG0RXL6SDXXEH4,338054,338054,1,0.03,"""",1416.7000000476837,0,practiceStim2,0,Counter-clockwise,true,"""",0.01,120,0.99,"""","2021-12-31 03:30:02",73.168.250.133,"Mozilla/5.0 (Windows NT 10.0; Win64; x64) AppleWebKit/537.36 (KHTML, like Gecko) Chrome/96.0.4664.110 Safari/537.36",WebKit,Chrome,96.0.4664.110,Windows,10.0,ac0f2dffeffaa78d35a552e03d03f0a8
13,1,"""",practice_procedure,confidence_rating,html-slider-response,26,144824,0.0-9.0-0.0-2.5,3SD15I2WEBVYX2RZ7BNPTJHHA9P63F,A13FTIHWW9GE8X,3K772S5NPHCKR9O6IG0RXL6SDXXEH4,N27K4,N27K4,3K772S5NPHCKR9O6IG0RXL6SDXXEH4,3K772S5NPHCKR9O6IG0RXL6SDXXEH4,338054,338054,1,0.03,"""",2761.100000023842,55,"<div id=""message-div""><p>How confident are you that your clockwise/counter-clockwise response just now was accurate? Please rate your confidence on the slider bar below.</p></div>","""","""","""",50,"""","""","""",55,"2021-12-31 03:30:02",73.168.250.133,"Mozilla/5.0 (Windows NT 10.0; Win64; x64) AppleWebKit/537.36 (KHTML, like Gecko) Chrome/96.0.4664.110 Safari/537.36",WebKit,Chrome,96.0.4664.110,Windows,10.0,ac0f2dffeffaa78d35a552e03d03f0a8
13,1,"""",practice_procedure,fixation,html-keyboard-response,27,145326,0.0-9.0-0.0-0.6,3SD15I2WEBVYX2RZ7BNPTJHHA9P63F,A13FTIHWW9GE8X,3K772S5NPHCKR9O6IG0RXL6SDXXEH4,N27K4,N27K4,3K772S5NPHCKR9O6IG0RXL6SDXXEH4,3K772S5NPHCKR9O6IG0RXL6SDXXEH4,338054,338054,1,0.03,"""",null,null,"<div class = fixationbox><div class = fixation>+</div></div>","""","""","""","""","""","""","""","""","2021-12-31 03:30:02",73.168.250.133,"Mozilla/5.0 (Windows NT 10.0; Win64; x64) AppleWebKit/537.36 (KHTML, like Gecko) Chrome/96.0.4664.110 Safari/537.36",WebKit,Chrome,96.0.4664.110,Windows,10.0,ac0f2dffeffaa78d35a552e03d03f0a8
13,1,"""",practice_procedure,stim_practice,canvas-button-response,28,146746,0.0-9.0-0.0-1.6,3SD15I2WEBVYX2RZ7BNPTJHHA9P63F,A13FTIHWW9GE8X,3K772S5NPHCKR9O6IG0RXL6SDXXEH4,N27K4,N27K4,3K772S5NPHCKR9O6IG0RXL6SDXXEH4,3K772S5NPHCKR9O6IG0RXL6SDXXEH4,338054,338054,1,0.03,"""",1383.7000000476837,1,practiceStim3,1,Clockwise,true,"""",0.3,60,0.99,"""","2021-12-31 03:30:02",73.168.250.133,"Mozilla/5.0 (Windows NT 10.0; Win64; x64) AppleWebKit/537.36 (KHTML, like Gecko) Chrome/96.0.4664.110 Safari/537.36",WebKit,Chrome,96.0.4664.110,Windows,10.0,ac0f2dffeffaa78d35a552e03d03f0a8
13,1,"""",practice_procedure,confidence_rating,html-slider-response,29,149146,0.0-9.0-0.0-2.6,3SD15I2WEBVYX2RZ7BNPTJHHA9P63F,A13FTIHWW9GE8X,3K772S5NPHCKR9O6IG0RXL6SDXXEH4,N27K4,N27K4,3K772S5NPHCKR9O6IG0RXL6SDXXEH4,3K772S5NPHCKR9O6IG0RXL6SDXXEH4,338054,338054,1,0.03,"""",2396.899999976158,54,"<div id=""message-div""><p>How confident are you that your clockwise/counter-clockwise response just now was accurate? Please rate your confidence on the slider bar below.</p></div>","""","""","""",50,"""","""","""",54,"2021-12-31 03:30:02",73.168.250.133,"Mozilla/5.0 (Windows NT 10.0; Win64; x64) AppleWebKit/537.36 (KHTML, like Gecko) Chrome/96.0.4664.110 Safari/537.36",WebKit,Chrome,96.0.4664.110,Windows,10.0,ac0f2dffeffaa78d35a552e03d03f0a8
13,1,"""",practice_procedure,fixation,html-keyboard-response,30,149647,0.0-9.0-0.0-0.7,3SD15I2WEBVYX2RZ7BNPTJHHA9P63F,A13FTIHWW9GE8X,3K772S5NPHCKR9O6IG0RXL6SDXXEH4,N27K4,N27K4,3K772S5NPHCKR9O6IG0RXL6SDXXEH4,3K772S5NPHCKR9O6IG0RXL6SDXXEH4,338054,338054,1,0.03,"""",null,null,"<div class = fixationbox><div class = fixation>+</div></div>","""","""","""","""","""","""","""","""","2021-12-31 03:30:02",73.168.250.133,"Mozilla/5.0 (Windows NT 10.0; Win64; x64) AppleWebKit/537.36 (KHTML, like Gecko) Chrome/96.0.4664.110 Safari/537.36",WebKit,Chrome,96.0.4664.110,Windows,10.0,ac0f2dffeffaa78d35a552e03d03f0a8
13,1,"""",practice_procedure,stim_practice,canvas-button-response,31,150988,0.0-9.0-0.0-1.7,3SD15I2WEBVYX2RZ7BNPTJHHA9P63F,A13FTIHWW9GE8X,3K772S5NPHCKR9O6IG0RXL6SDXXEH4,N27K4,N27K4,3K772S5NPHCKR9O6IG0RXL6SDXXEH4,3K772S5NPHCKR9O6IG0RXL6SDXXEH4,338054,338054,1,0.03,"""",1306.7999999523163,1,practiceStim3,1,Clockwise,true,"""",0.3,60,0.99,"""","2021-12-31 03:30:02",73.168.250.133,"Mozilla/5.0 (Windows NT 10.0; Win64; x64) AppleWebKit/537.36 (KHTML, like Gecko) Chrome/96.0.4664.110 Safari/537.36",WebKit,Chrome,96.0.4664.110,Windows,10.0,ac0f2dffeffaa78d35a552e03d03f0a8
13,1,"""",practice_procedure,confidence_rating,html-slider-response,32,153162,0.0-9.0-0.0-2.7,3SD15I2WEBVYX2RZ7BNPTJHHA9P63F,A13FTIHWW9GE8X,3K772S5NPHCKR9O6IG0RXL6SDXXEH4,N27K4,N27K4,3K772S5NPHCKR9O6IG0RXL6SDXXEH4,3K772S5NPHCKR9O6IG0RXL6SDXXEH4,338054,338054,1,0.03,"""",2173.100000023842,49,"<div id=""message-div""><p>How confident are you that your clockwise/counter-clockwise response just now was accurate? Please rate your confidence on the slider bar below.</p></div>","""","""","""",50,"""","""","""",49,"2021-12-31 03:30:02",73.168.250.133,"Mozilla/5.0 (Windows NT 10.0; Win64; x64) AppleWebKit/537.36 (KHTML, like Gecko) Chrome/96.0.4664.110 Safari/537.36",WebKit,Chrome,96.0.4664.110,Windows,10.0,ac0f2dffeffaa78d35a552e03d03f0a8
13,1,"""",practice_procedure,fixation,html-keyboard-response,33,153664,0.0-9.0-0.0-0.8,3SD15I2WEBVYX2RZ7BNPTJHHA9P63F,A13FTIHWW9GE8X,3K772S5NPHCKR9O6IG0RXL6SDXXEH4,N27K4,N27K4,3K772S5NPHCKR9O6IG0RXL6SDXXEH4,3K772S5NPHCKR9O6IG0RXL6SDXXEH4,338054,338054,1,0.03,"""",null,null,"<div class = fixationbox><div class = fixation>+</div></div>","""","""","""","""","""","""","""","""","2021-12-31 03:30:02",73.168.250.133,"Mozilla/5.0 (Windows NT 10.0; Win64; x64) AppleWebKit/537.36 (KHTML, like Gecko) Chrome/96.0.4664.110 Safari/537.36",WebKit,Chrome,96.0.4664.110,Windows,10.0,ac0f2dffeffaa78d35a552e03d03f0a8
13,1,"""",practice_procedure,stim_practice,canvas-button-response,34,154958,0.0-9.0-0.0-1.8,3SD15I2WEBVYX2RZ7BNPTJHHA9P63F,A13FTIHWW9GE8X,3K772S5NPHCKR9O6IG0RXL6SDXXEH4,N27K4,N27K4,3K772S5NPHCKR9O6IG0RXL6SDXXEH4,3K772S5NPHCKR9O6IG0RXL6SDXXEH4,338054,338054,1,0.03,"""",1228.5999999046326,1,practiceStim3,1,Clockwise,true,"""",0.3,60,0.99,"""","2021-12-31 03:30:02",73.168.250.133,"Mozilla/5.0 (Windows NT 10.0; Win64; x64) AppleWebKit/537.36 (KHTML, like Gecko) Chrome/96.0.4664.110 Safari/537.36",WebKit,Chrome,96.0.4664.110,Windows,10.0,ac0f2dffeffaa78d35a552e03d03f0a8
13,1,"""",practice_procedure,confidence_rating,html-slider-response,35,157208,0.0-9.0-0.0-2.8,3SD15I2WEBVYX2RZ7BNPTJHHA9P63F,A13FTIHWW9GE8X,3K772S5NPHCKR9O6IG0RXL6SDXXEH4,N27K4,N27K4,3K772S5NPHCKR9O6IG0RXL6SDXXEH4,3K772S5NPHCKR9O6IG0RXL6SDXXEH4,338054,338054,1,0.03,"""",2248.8000000715256,46,"<div id=""message-div""><p>How confident are you that your clockwise/counter-clockwise response just now was accurate? Please rate your confidence on the slider bar below.</p></div>","""","""","""",50,"""","""","""",46,"2021-12-31 03:30:02",73.168.250.133,"Mozilla/5.0 (Windows NT 10.0; Win64; x64) AppleWebKit/537.36 (KHTML, like Gecko) Chrome/96.0.4664.110 Safari/537.36",WebKit,Chrome,96.0.4664.110,Windows,10.0,ac0f2dffeffaa78d35a552e03d03f0a8
13,1,"""",practice_procedure,fixation,html-keyboard-response,36,157709,0.0-9.0-0.0-0.9,3SD15I2WEBVYX2RZ7BNPTJHHA9P63F,A13FTIHWW9GE8X,3K772S5NPHCKR9O6IG0RXL6SDXXEH4,N27K4,N27K4,3K772S5NPHCKR9O6IG0RXL6SDXXEH4,3K772S5NPHCKR9O6IG0RXL6SDXXEH4,338054,338054,1,0.03,"""",null,null,"<div class = fixationbox><div class = fixation>+</div></div>","""","""","""","""","""","""","""","""","2021-12-31 03:30:02",73.168.250.133,"Mozilla/5.0 (Windows NT 10.0; Win64; x64) AppleWebKit/537.36 (KHTML, like Gecko) Chrome/96.0.4664.110 Safari/537.36",WebKit,Chrome,96.0.4664.110,Windows,10.0,ac0f2dffeffaa78d35a552e03d03f0a8
13,1,"""",practice_procedure,stim_practice,canvas-button-response,37,159036,0.0-9.0-0.0-1.9,3SD15I2WEBVYX2RZ7BNPTJHHA9P63F,A13FTIHWW9GE8X,3K772S5NPHCKR9O6IG0RXL6SDXXEH4,N27K4,N27K4,3K772S5NPHCKR9O6IG0RXL6SDXXEH4,3K772S5NPHCKR9O6IG0RXL6SDXXEH4,338054,338054,1,0.03,"""",1295.5,1,practiceStim4,0,Counter-clockwise,false,"""",0.3,120,0.99,"""","2021-12-31 03:30:02",73.168.250.133,"Mozilla/5.0 (Windows NT 10.0; Win64; x64) AppleWebKit/537.36 (KHTML, like Gecko) Chrome/96.0.4664.110 Safari/537.36",WebKit,Chrome,96.0.4664.110,Windows,10.0,ac0f2dffeffaa78d35a552e03d03f0a8
13,1,"""",practice_procedure,confidence_rating,html-slider-response,38,160966,0.0-9.0-0.0-2.9,3SD15I2WEBVYX2RZ7BNPTJHHA9P63F,A13FTIHWW9GE8X,3K772S5NPHCKR9O6IG0RXL6SDXXEH4,N27K4,N27K4,3K772S5NPHCKR9O6IG0RXL6SDXXEH4,3K772S5NPHCKR9O6IG0RXL6SDXXEH4,338054,338054,1,0.03,"""",1927.5,54,"<div id=""message-div""><p>How confident are you that your clockwise/counter-clockwise response just now was accurate? Please rate your confidence on the slider bar below.</p></div>","""","""","""",50,"""","""","""",54,"2021-12-31 03:30:02",73.168.250.133,"Mozilla/5.0 (Windows NT 10.0; Win64; x64) AppleWebKit/537.36 (KHTML, like Gecko) Chrome/96.0.4664.110 Safari/537.36",WebKit,Chrome,96.0.4664.110,Windows,10.0,ac0f2dffeffaa78d35a552e03d03f0a8
13,1,"""",practice_procedure,practice_procedure_condition,html-button-response,39,166008,0.0-9.0-1.0-0.0,3SD15I2WEBVYX2RZ7BNPTJHHA9P63F,A13FTIHWW9GE8X,3K772S5NPHCKR9O6IG0RXL6SDXXEH4,N27K4,N27K4,3K772S5NPHCKR9O6IG0RXL6SDXXEH4,3K772S5NPHCKR9O6IG0RXL6SDXXEH4,338054,338054,1,0.03,"""",5040.600000023842,0,"<div id=""message-div""><p>You made too many incorrect responses. You will now repeat the practice.</p><p>Click the 'Next' button to continue.</p></div>","""","""","""","""","""","""","""","""","2021-12-31 03:30:02",73.168.250.133,"Mozilla/5.0 (Windows NT 10.0; Win64; x64) AppleWebKit/537.36 (KHTML, like Gecko) Chrome/96.0.4664.110 Safari/537.36",WebKit,Chrome,96.0.4664.110,Windows,10.0,ac0f2dffeffaa78d35a552e03d03f0a8
13,1,"""",practice_procedure,fixation,html-keyboard-response,40,166512,0.0-9.1-0.1-0.10,3SD15I2WEBVYX2RZ7BNPTJHHA9P63F,A13FTIHWW9GE8X,3K772S5NPHCKR9O6IG0RXL6SDXXEH4,N27K4,N27K4,3K772S5NPHCKR9O6IG0RXL6SDXXEH4,3K772S5NPHCKR9O6IG0RXL6SDXXEH4,338054,338054,1,0.03,"""",null,null,"<div class = fixationbox><div class = fixation>+</div></div>","""","""","""","""","""","""","""","""","2021-12-31 03:30:02",73.168.250.133,"Mozilla/5.0 (Windows NT 10.0; Win64; x64) AppleWebKit/537.36 (KHTML, like Gecko) Chrome/96.0.4664.110 Safari/537.36",WebKit,Chrome,96.0.4664.110,Windows,10.0,ac0f2dffeffaa78d35a552e03d03f0a8
13,1,"""",practice_procedure,stim_practice,canvas-button-response,41,168692,0.0-9.1-0.1-1.10,3SD15I2WEBVYX2RZ7BNPTJHHA9P63F,A13FTIHWW9GE8X,3K772S5NPHCKR9O6IG0RXL6SDXXEH4,N27K4,N27K4,3K772S5NPHCKR9O6IG0RXL6SDXXEH4,3K772S5NPHCKR9O6IG0RXL6SDXXEH4,338054,338054,1,0.03,"""",2127.9000000953674,1,practiceStim4,0,Counter-clockwise,false,"""",0.3,120,0.99,"""","2021-12-31 03:30:02",73.168.250.133,"Mozilla/5.0 (Windows NT 10.0; Win64; x64) AppleWebKit/537.36 (KHTML, like Gecko) Chrome/96.0.4664.110 Safari/537.36",WebKit,Chrome,96.0.4664.110,Windows,10.0,ac0f2dffeffaa78d35a552e03d03f0a8
13,1,"""",practice_procedure,confidence_rating,html-slider-response,42,171358,0.0-9.1-0.1-2.10,3SD15I2WEBVYX2RZ7BNPTJHHA9P63F,A13FTIHWW9GE8X,3K772S5NPHCKR9O6IG0RXL6SDXXEH4,N27K4,N27K4,3K772S5NPHCKR9O6IG0RXL6SDXXEH4,3K772S5NPHCKR9O6IG0RXL6SDXXEH4,338054,338054,1,0.03,"""",2665,50,"<div id=""message-div""><p>How confident are you that your clockwise/counter-clockwise response just now was accurate? Please rate your confidence on the slider bar below.</p></div>","""","""","""",50,"""","""","""",50,"2021-12-31 03:30:02",73.168.250.133,"Mozilla/5.0 (Windows NT 10.0; Win64; x64) AppleWebKit/537.36 (KHTML, like Gecko) Chrome/96.0.4664.110 Safari/537.36",WebKit,Chrome,96.0.4664.110,Windows,10.0,ac0f2dffeffaa78d35a552e03d03f0a8
13,1,"""",practice_procedure,fixation,html-keyboard-response,43,171859,0.0-9.1-0.1-0.11,3SD15I2WEBVYX2RZ7BNPTJHHA9P63F,A13FTIHWW9GE8X,3K772S5NPHCKR9O6IG0RXL6SDXXEH4,N27K4,N27K4,3K772S5NPHCKR9O6IG0RXL6SDXXEH4,3K772S5NPHCKR9O6IG0RXL6SDXXEH4,338054,338054,1,0.03,"""",null,null,"<div class = fixationbox><div class = fixation>+</div></div>","""","""","""","""","""","""","""","""","2021-12-31 03:30:02",73.168.250.133,"Mozilla/5.0 (Windows NT 10.0; Win64; x64) AppleWebKit/537.36 (KHTML, like Gecko) Chrome/96.0.4664.110 Safari/537.36",WebKit,Chrome,96.0.4664.110,Windows,10.0,ac0f2dffeffaa78d35a552e03d03f0a8
13,1,"""",practice_procedure,stim_practice,canvas-button-response,44,173264,0.0-9.1-0.1-1.11,3SD15I2WEBVYX2RZ7BNPTJHHA9P63F,A13FTIHWW9GE8X,3K772S5NPHCKR9O6IG0RXL6SDXXEH4,N27K4,N27K4,3K772S5NPHCKR9O6IG0RXL6SDXXEH4,3K772S5NPHCKR9O6IG0RXL6SDXXEH4,338054,338054,1,0.03,"""",1360.1000000238419,1,practiceStim4,0,Counter-clockwise,false,"""",0.3,120,0.99,"""","2021-12-31 03:30:02",73.168.250.133,"Mozilla/5.0 (Windows NT 10.0; Win64; x64) AppleWebKit/537.36 (KHTML, like Gecko) Chrome/96.0.4664.110 Safari/537.36",WebKit,Chrome,96.0.4664.110,Windows,10.0,ac0f2dffeffaa78d35a552e03d03f0a8
13,1,"""",practice_procedure,confidence_rating,html-slider-response,45,175568,0.0-9.1-0.1-2.11,3SD15I2WEBVYX2RZ7BNPTJHHA9P63F,A13FTIHWW9GE8X,3K772S5NPHCKR9O6IG0RXL6SDXXEH4,N27K4,N27K4,3K772S5NPHCKR9O6IG0RXL6SDXXEH4,3K772S5NPHCKR9O6IG0RXL6SDXXEH4,338054,338054,1,0.03,"""",2303,51,"<div id=""message-div""><p>How confident are you that your clockwise/counter-clockwise response just now was accurate? Please rate your confidence on the slider bar below.</p></div>","""","""","""",50,"""","""","""",51,"2021-12-31 03:30:02",73.168.250.133,"Mozilla/5.0 (Windows NT 10.0; Win64; x64) AppleWebKit/537.36 (KHTML, like Gecko) Chrome/96.0.4664.110 Safari/537.36",WebKit,Chrome,96.0.4664.110,Windows,10.0,ac0f2dffeffaa78d35a552e03d03f0a8
13,1,"""",practice_procedure,fixation,html-keyboard-response,46,176069,0.0-9.1-0.1-0.12,3SD15I2WEBVYX2RZ7BNPTJHHA9P63F,A13FTIHWW9GE8X,3K772S5NPHCKR9O6IG0RXL6SDXXEH4,N27K4,N27K4,3K772S5NPHCKR9O6IG0RXL6SDXXEH4,3K772S5NPHCKR9O6IG0RXL6SDXXEH4,338054,338054,1,0.03,"""",null,null,"<div class = fixationbox><div class = fixation>+</div></div>","""","""","""","""","""","""","""","""","2021-12-31 03:30:02",73.168.250.133,"Mozilla/5.0 (Windows NT 10.0; Win64; x64) AppleWebKit/537.36 (KHTML, like Gecko) Chrome/96.0.4664.110 Safari/537.36",WebKit,Chrome,96.0.4664.110,Windows,10.0,ac0f2dffeffaa78d35a552e03d03f0a8
13,1,"""",practice_procedure,stim_practice,canvas-button-response,47,177452,0.0-9.1-0.1-1.12,3SD15I2WEBVYX2RZ7BNPTJHHA9P63F,A13FTIHWW9GE8X,3K772S5NPHCKR9O6IG0RXL6SDXXEH4,N27K4,N27K4,3K772S5NPHCKR9O6IG0RXL6SDXXEH4,3K772S5NPHCKR9O6IG0RXL6SDXXEH4,338054,338054,1,0.03,"""",1342.4000000953674,0,practiceStim1,1,Clockwise,false,"""",0.01,60,0.99,"""","2021-12-31 03:30:02",73.168.250.133,"Mozilla/5.0 (Windows NT 10.0; Win64; x64) AppleWebKit/537.36 (KHTML, like Gecko) Chrome/96.0.4664.110 Safari/537.36",WebKit,Chrome,96.0.4664.110,Windows,10.0,ac0f2dffeffaa78d35a552e03d03f0a8
13,1,"""",practice_procedure,confidence_rating,html-slider-response,48,179592,0.0-9.1-0.1-2.12,3SD15I2WEBVYX2RZ7BNPTJHHA9P63F,A13FTIHWW9GE8X,3K772S5NPHCKR9O6IG0RXL6SDXXEH4,N27K4,N27K4,3K772S5NPHCKR9O6IG0RXL6SDXXEH4,3K772S5NPHCKR9O6IG0RXL6SDXXEH4,338054,338054,1,0.03,"""",2138.7999999523163,55,"<div id=""message-div""><p>How confident are you that your clockwise/counter-clockwise response just now was accurate? Please rate your confidence on the slider bar below.</p></div>","""","""","""",50,"""","""","""",55,"2021-12-31 03:30:02",73.168.250.133,"Mozilla/5.0 (Windows NT 10.0; Win64; x64) AppleWebKit/537.36 (KHTML, like Gecko) Chrome/96.0.4664.110 Safari/537.36",WebKit,Chrome,96.0.4664.110,Windows,10.0,ac0f2dffeffaa78d35a552e03d03f0a8
13,1,"""",practice_procedure,fixation,html-keyboard-response,49,180095,0.0-9.1-0.1-0.13,3SD15I2WEBVYX2RZ7BNPTJHHA9P63F,A13FTIHWW9GE8X,3K772S5NPHCKR9O6IG0RXL6SDXXEH4,N27K4,N27K4,3K772S5NPHCKR9O6IG0RXL6SDXXEH4,3K772S5NPHCKR9O6IG0RXL6SDXXEH4,338054,338054,1,0.03,"""",null,null,"<div class = fixationbox><div class = fixation>+</div></div>","""","""","""","""","""","""","""","""","2021-12-31 03:30:02",73.168.250.133,"Mozilla/5.0 (Windows NT 10.0; Win64; x64) AppleWebKit/537.36 (KHTML, like Gecko) Chrome/96.0.4664.110 Safari/537.36",WebKit,Chrome,96.0.4664.110,Windows,10.0,ac0f2dffeffaa78d35a552e03d03f0a8
13,1,"""",practice_procedure,stim_practice,canvas-button-response,50,181420,0.0-9.1-0.1-1.13,3SD15I2WEBVYX2RZ7BNPTJHHA9P63F,A13FTIHWW9GE8X,3K772S5NPHCKR9O6IG0RXL6SDXXEH4,N27K4,N27K4,3K772S5NPHCKR9O6IG0RXL6SDXXEH4,3K772S5NPHCKR9O6IG0RXL6SDXXEH4,338054,338054,1,0.03,"""",1289.2000000476837,1,practiceStim1,1,Clockwise,true,"""",0.01,60,0.99,"""","2021-12-31 03:30:02",73.168.250.133,"Mozilla/5.0 (Windows NT 10.0; Win64; x64) AppleWebKit/537.36 (KHTML, like Gecko) Chrome/96.0.4664.110 Safari/537.36",WebKit,Chrome,96.0.4664.110,Windows,10.0,ac0f2dffeffaa78d35a552e03d03f0a8
13,1,"""",practice_procedure,confidence_rating,html-slider-response,51,183812,0.0-9.1-0.1-2.13,3SD15I2WEBVYX2RZ7BNPTJHHA9P63F,A13FTIHWW9GE8X,3K772S5NPHCKR9O6IG0RXL6SDXXEH4,N27K4,N27K4,3K772S5NPHCKR9O6IG0RXL6SDXXEH4,3K772S5NPHCKR9O6IG0RXL6SDXXEH4,338054,338054,1,0.03,"""",2390.899999976158,51,"<div id=""message-div""><p>How confident are you that your clockwise/counter-clockwise response just now was accurate? Please rate your confidence on the slider bar below.</p></div>","""","""","""",50,"""","""","""",51,"2021-12-31 03:30:02",73.168.250.133,"Mozilla/5.0 (Windows NT 10.0; Win64; x64) AppleWebKit/537.36 (KHTML, like Gecko) Chrome/96.0.4664.110 Safari/537.36",WebKit,Chrome,96.0.4664.110,Windows,10.0,ac0f2dffeffaa78d35a552e03d03f0a8
13,1,"""",practice_procedure,fixation,html-keyboard-response,52,184313,0.0-9.1-0.1-0.14,3SD15I2WEBVYX2RZ7BNPTJHHA9P63F,A13FTIHWW9GE8X,3K772S5NPHCKR9O6IG0RXL6SDXXEH4,N27K4,N27K4,3K772S5NPHCKR9O6IG0RXL6SDXXEH4,3K772S5NPHCKR9O6IG0RXL6SDXXEH4,338054,338054,1,0.03,"""",null,null,"<div class = fixationbox><div class = fixation>+</div></div>","""","""","""","""","""","""","""","""","2021-12-31 03:30:02",73.168.250.133,"Mozilla/5.0 (Windows NT 10.0; Win64; x64) AppleWebKit/537.36 (KHTML, like Gecko) Chrome/96.0.4664.110 Safari/537.36",WebKit,Chrome,96.0.4664.110,Windows,10.0,ac0f2dffeffaa78d35a552e03d03f0a8
13,1,"""",practice_procedure,stim_practice,canvas-button-response,53,185766,0.0-9.1-0.1-1.14,3SD15I2WEBVYX2RZ7BNPTJHHA9P63F,A13FTIHWW9GE8X,3K772S5NPHCKR9O6IG0RXL6SDXXEH4,N27K4,N27K4,3K772S5NPHCKR9O6IG0RXL6SDXXEH4,3K772S5NPHCKR9O6IG0RXL6SDXXEH4,338054,338054,1,0.03,"""",1395.7000000476837,0,practiceStim1,1,Clockwise,false,"""",0.01,60,0.99,"""","2021-12-31 03:30:02",73.168.250.133,"Mozilla/5.0 (Windows NT 10.0; Win64; x64) AppleWebKit/537.36 (KHTML, like Gecko) Chrome/96.0.4664.110 Safari/537.36",WebKit,Chrome,96.0.4664.110,Windows,10.0,ac0f2dffeffaa78d35a552e03d03f0a8
13,1,"""",practice_procedure,confidence_rating,html-slider-response,54,188284,0.0-9.1-0.1-2.14,3SD15I2WEBVYX2RZ7BNPTJHHA9P63F,A13FTIHWW9GE8X,3K772S5NPHCKR9O6IG0RXL6SDXXEH4,N27K4,N27K4,3K772S5NPHCKR9O6IG0RXL6SDXXEH4,3K772S5NPHCKR9O6IG0RXL6SDXXEH4,338054,338054,1,0.03,"""",2515.1999999284744,50,"<div id=""message-div""><p>How confident are you that your clockwise/counter-clockwise response just now was accurate? Please rate your confidence on the slider bar below.</p></div>","""","""","""",50,"""","""","""",50,"2021-12-31 03:30:02",73.168.250.133,"Mozilla/5.0 (Windows NT 10.0; Win64; x64) AppleWebKit/537.36 (KHTML, like Gecko) Chrome/96.0.4664.110 Safari/537.36",WebKit,Chrome,96.0.4664.110,Windows,10.0,ac0f2dffeffaa78d35a552e03d03f0a8
13,1,"""",practice_procedure,fixation,html-keyboard-response,55,188786,0.0-9.1-0.1-0.15,3SD15I2WEBVYX2RZ7BNPTJHHA9P63F,A13FTIHWW9GE8X,3K772S5NPHCKR9O6IG0RXL6SDXXEH4,N27K4,N27K4,3K772S5NPHCKR9O6IG0RXL6SDXXEH4,3K772S5NPHCKR9O6IG0RXL6SDXXEH4,338054,338054,1,0.03,"""",null,null,"<div class = fixationbox><div class = fixation>+</div></div>","""","""","""","""","""","""","""","""","2021-12-31 03:30:02",73.168.250.133,"Mozilla/5.0 (Windows NT 10.0; Win64; x64) AppleWebKit/537.36 (KHTML, like Gecko) Chrome/96.0.4664.110 Safari/537.36",WebKit,Chrome,96.0.4664.110,Windows,10.0,ac0f2dffeffaa78d35a552e03d03f0a8
13,1,"""",practice_procedure,stim_practice,canvas-button-response,56,190252,0.0-9.1-0.1-1.15,3SD15I2WEBVYX2RZ7BNPTJHHA9P63F,A13FTIHWW9GE8X,3K772S5NPHCKR9O6IG0RXL6SDXXEH4,N27K4,N27K4,3K772S5NPHCKR9O6IG0RXL6SDXXEH4,3K772S5NPHCKR9O6IG0RXL6SDXXEH4,338054,338054,1,0.03,"""",1424.2000000476837,0,practiceStim2,0,Counter-clockwise,true,"""",0.01,120,0.99,"""","2021-12-31 03:30:02",73.168.250.133,"Mozilla/5.0 (Windows NT 10.0; Win64; x64) AppleWebKit/537.36 (KHTML, like Gecko) Chrome/96.0.4664.110 Safari/537.36",WebKit,Chrome,96.0.4664.110,Windows,10.0,ac0f2dffeffaa78d35a552e03d03f0a8
13,1,"""",practice_procedure,confidence_rating,html-slider-response,57,192488,0.0-9.1-0.1-2.15,3SD15I2WEBVYX2RZ7BNPTJHHA9P63F,A13FTIHWW9GE8X,3K772S5NPHCKR9O6IG0RXL6SDXXEH4,N27K4,N27K4,3K772S5NPHCKR9O6IG0RXL6SDXXEH4,3K772S5NPHCKR9O6IG0RXL6SDXXEH4,338054,338054,1,0.03,"""",2235.399999976158,52,"<div id=""message-div""><p>How confident are you that your clockwise/counter-clockwise response just now was accurate? Please rate your confidence on the slider bar below.</p></div>","""","""","""",50,"""","""","""",52,"2021-12-31 03:30:02",73.168.250.133,"Mozilla/5.0 (Windows NT 10.0; Win64; x64) AppleWebKit/537.36 (KHTML, like Gecko) Chrome/96.0.4664.110 Safari/537.36",WebKit,Chrome,96.0.4664.110,Windows,10.0,ac0f2dffeffaa78d35a552e03d03f0a8
13,1,"""",practice_procedure,fixation,html-keyboard-response,58,192990,0.0-9.1-0.1-0.16,3SD15I2WEBVYX2RZ7BNPTJHHA9P63F,A13FTIHWW9GE8X,3K772S5NPHCKR9O6IG0RXL6SDXXEH4,N27K4,N27K4,3K772S5NPHCKR9O6IG0RXL6SDXXEH4,3K772S5NPHCKR9O6IG0RXL6SDXXEH4,338054,338054,1,0.03,"""",null,null,"<div class = fixationbox><div class = fixation>+</div></div>","""","""","""","""","""","""","""","""","2021-12-31 03:30:02",73.168.250.133,"Mozilla/5.0 (Windows NT 10.0; Win64; x64) AppleWebKit/537.36 (KHTML, like Gecko) Chrome/96.0.4664.110 Safari/537.36",WebKit,Chrome,96.0.4664.110,Windows,10.0,ac0f2dffeffaa78d35a552e03d03f0a8
13,1,"""",practice_procedure,stim_practice,canvas-button-response,59,194260,0.0-9.1-0.1-1.16,3SD15I2WEBVYX2RZ7BNPTJHHA9P63F,A13FTIHWW9GE8X,3K772S5NPHCKR9O6IG0RXL6SDXXEH4,N27K4,N27K4,3K772S5NPHCKR9O6IG0RXL6SDXXEH4,3K772S5NPHCKR9O6IG0RXL6SDXXEH4,338054,338054,1,0.03,"""",1233.3999999761581,1,practiceStim2,0,Counter-clockwise,false,"""",0.01,120,0.99,"""","2021-12-31 03:30:02",73.168.250.133,"Mozilla/5.0 (Windows NT 10.0; Win64; x64) AppleWebKit/537.36 (KHTML, like Gecko) Chrome/96.0.4664.110 Safari/537.36",WebKit,Chrome,96.0.4664.110,Windows,10.0,ac0f2dffeffaa78d35a552e03d03f0a8
13,1,"""",practice_procedure,confidence_rating,html-slider-response,60,196574,0.0-9.1-0.1-2.16,3SD15I2WEBVYX2RZ7BNPTJHHA9P63F,A13FTIHWW9GE8X,3K772S5NPHCKR9O6IG0RXL6SDXXEH4,N27K4,N27K4,3K772S5NPHCKR9O6IG0RXL6SDXXEH4,3K772S5NPHCKR9O6IG0RXL6SDXXEH4,338054,338054,1,0.03,"""",2312.8000000715256,45,"<div id=""message-div""><p>How confident are you that your clockwise/counter-clockwise response just now was accurate? Please rate your confidence on the slider bar below.</p></div>","""","""","""",50,"""","""","""",45,"2021-12-31 03:30:02",73.168.250.133,"Mozilla/5.0 (Windows NT 10.0; Win64; x64) AppleWebKit/537.36 (KHTML, like Gecko) Chrome/96.0.4664.110 Safari/537.36",WebKit,Chrome,96.0.4664.110,Windows,10.0,ac0f2dffeffaa78d35a552e03d03f0a8
13,1,"""",practice_procedure,fixation,html-keyboard-response,61,197076,0.0-9.1-0.1-0.17,3SD15I2WEBVYX2RZ7BNPTJHHA9P63F,A13FTIHWW9GE8X,3K772S5NPHCKR9O6IG0RXL6SDXXEH4,N27K4,N27K4,3K772S5NPHCKR9O6IG0RXL6SDXXEH4,3K772S5NPHCKR9O6IG0RXL6SDXXEH4,338054,338054,1,0.03,"""",null,null,"<div class = fixationbox><div class = fixation>+</div></div>","""","""","""","""","""","""","""","""","2021-12-31 03:30:02",73.168.250.133,"Mozilla/5.0 (Windows NT 10.0; Win64; x64) AppleWebKit/537.36 (KHTML, like Gecko) Chrome/96.0.4664.110 Safari/537.36",WebKit,Chrome,96.0.4664.110,Windows,10.0,ac0f2dffeffaa78d35a552e03d03f0a8
13,1,"""",practice_procedure,stim_practice,canvas-button-response,62,198370,0.0-9.1-0.1-1.17,3SD15I2WEBVYX2RZ7BNPTJHHA9P63F,A13FTIHWW9GE8X,3K772S5NPHCKR9O6IG0RXL6SDXXEH4,N27K4,N27K4,3K772S5NPHCKR9O6IG0RXL6SDXXEH4,3K772S5NPHCKR9O6IG0RXL6SDXXEH4,338054,338054,1,0.03,"""",1251,0,practiceStim3,1,Clockwise,false,"""",0.3,60,0.99,"""","2021-12-31 03:30:02",73.168.250.133,"Mozilla/5.0 (Windows NT 10.0; Win64; x64) AppleWebKit/537.36 (KHTML, like Gecko) Chrome/96.0.4664.110 Safari/537.36",WebKit,Chrome,96.0.4664.110,Windows,10.0,ac0f2dffeffaa78d35a552e03d03f0a8
13,1,"""",practice_procedure,confidence_rating,html-slider-response,63,200252,0.0-9.1-0.1-2.17,3SD15I2WEBVYX2RZ7BNPTJHHA9P63F,A13FTIHWW9GE8X,3K772S5NPHCKR9O6IG0RXL6SDXXEH4,N27K4,N27K4,3K772S5NPHCKR9O6IG0RXL6SDXXEH4,3K772S5NPHCKR9O6IG0RXL6SDXXEH4,338054,338054,1,0.03,"""",1879.1999999284744,49,"<div id=""message-div""><p>How confident are you that your clockwise/counter-clockwise response just now was accurate? Please rate your confidence on the slider bar below.</p></div>","""","""","""",50,"""","""","""",49,"2021-12-31 03:30:02",73.168.250.133,"Mozilla/5.0 (Windows NT 10.0; Win64; x64) AppleWebKit/537.36 (KHTML, like Gecko) Chrome/96.0.4664.110 Safari/537.36",WebKit,Chrome,96.0.4664.110,Windows,10.0,ac0f2dffeffaa78d35a552e03d03f0a8
13,1,"""",practice_procedure,fixation,html-keyboard-response,64,200753,0.0-9.1-0.1-0.18,3SD15I2WEBVYX2RZ7BNPTJHHA9P63F,A13FTIHWW9GE8X,3K772S5NPHCKR9O6IG0RXL6SDXXEH4,N27K4,N27K4,3K772S5NPHCKR9O6IG0RXL6SDXXEH4,3K772S5NPHCKR9O6IG0RXL6SDXXEH4,338054,338054,1,0.03,"""",null,null,"<div class = fixationbox><div class = fixation>+</div></div>","""","""","""","""","""","""","""","""","2021-12-31 03:30:02",73.168.250.133,"Mozilla/5.0 (Windows NT 10.0; Win64; x64) AppleWebKit/537.36 (KHTML, like Gecko) Chrome/96.0.4664.110 Safari/537.36",WebKit,Chrome,96.0.4664.110,Windows,10.0,ac0f2dffeffaa78d35a552e03d03f0a8
13,1,"""",practice_procedure,stim_practice,canvas-button-response,65,202284,0.0-9.1-0.1-1.18,3SD15I2WEBVYX2RZ7BNPTJHHA9P63F,A13FTIHWW9GE8X,3K772S5NPHCKR9O6IG0RXL6SDXXEH4,N27K4,N27K4,3K772S5NPHCKR9O6IG0RXL6SDXXEH4,3K772S5NPHCKR9O6IG0RXL6SDXXEH4,338054,338054,1,0.03,"""",1493.8000000715256,0,practiceStim3,1,Clockwise,false,"""",0.3,60,0.99,"""","2021-12-31 03:30:02",73.168.250.133,"Mozilla/5.0 (Windows NT 10.0; Win64; x64) AppleWebKit/537.36 (KHTML, like Gecko) Chrome/96.0.4664.110 Safari/537.36",WebKit,Chrome,96.0.4664.110,Windows,10.0,ac0f2dffeffaa78d35a552e03d03f0a8
13,1,"""",practice_procedure,confidence_rating,html-slider-response,66,204400,0.0-9.1-0.1-2.18,3SD15I2WEBVYX2RZ7BNPTJHHA9P63F,A13FTIHWW9GE8X,3K772S5NPHCKR9O6IG0RXL6SDXXEH4,N27K4,N27K4,3K772S5NPHCKR9O6IG0RXL6SDXXEH4,3K772S5NPHCKR9O6IG0RXL6SDXXEH4,338054,338054,1,0.03,"""",2115.2999999523163,48,"<div id=""message-div""><p>How confident are you that your clockwise/counter-clockwise response just now was accurate? Please rate your confidence on the slider bar below.</p></div>","""","""","""",50,"""","""","""",48,"2021-12-31 03:30:02",73.168.250.133,"Mozilla/5.0 (Windows NT 10.0; Win64; x64) AppleWebKit/537.36 (KHTML, like Gecko) Chrome/96.0.4664.110 Safari/537.36",WebKit,Chrome,96.0.4664.110,Windows,10.0,ac0f2dffeffaa78d35a552e03d03f0a8
13,1,"""",practice_procedure,fixation,html-keyboard-response,67,204903,0.0-9.1-0.1-0.19,3SD15I2WEBVYX2RZ7BNPTJHHA9P63F,A13FTIHWW9GE8X,3K772S5NPHCKR9O6IG0RXL6SDXXEH4,N27K4,N27K4,3K772S5NPHCKR9O6IG0RXL6SDXXEH4,3K772S5NPHCKR9O6IG0RXL6SDXXEH4,338054,338054,1,0.03,"""",null,null,"<div class = fixationbox><div class = fixation>+</div></div>","""","""","""","""","""","""","""","""","2021-12-31 03:30:02",73.168.250.133,"Mozilla/5.0 (Windows NT 10.0; Win64; x64) AppleWebKit/537.36 (KHTML, like Gecko) Chrome/96.0.4664.110 Safari/537.36",WebKit,Chrome,96.0.4664.110,Windows,10.0,ac0f2dffeffaa78d35a552e03d03f0a8
13,1,"""",practice_procedure,stim_practice,canvas-button-response,68,206174,0.0-9.1-0.1-1.19,3SD15I2WEBVYX2RZ7BNPTJHHA9P63F,A13FTIHWW9GE8X,3K772S5NPHCKR9O6IG0RXL6SDXXEH4,N27K4,N27K4,3K772S5NPHCKR9O6IG0RXL6SDXXEH4,3K772S5NPHCKR9O6IG0RXL6SDXXEH4,338054,338054,1,0.03,"""",1236,1,practiceStim3,1,Clockwise,true,"""",0.3,60,0.99,"""","2021-12-31 03:30:02",73.168.250.133,"Mozilla/5.0 (Windows NT 10.0; Win64; x64) AppleWebKit/537.36 (KHTML, like Gecko) Chrome/96.0.4664.110 Safari/537.36",WebKit,Chrome,96.0.4664.110,Windows,10.0,ac0f2dffeffaa78d35a552e03d03f0a8
13,1,"""",practice_procedure,confidence_rating,html-slider-response,69,208338,0.0-9.1-0.1-2.19,3SD15I2WEBVYX2RZ7BNPTJHHA9P63F,A13FTIHWW9GE8X,3K772S5NPHCKR9O6IG0RXL6SDXXEH4,N27K4,N27K4,3K772S5NPHCKR9O6IG0RXL6SDXXEH4,3K772S5NPHCKR9O6IG0RXL6SDXXEH4,338054,338054,1,0.03,"""",2162.8000000715256,46,"<div id=""message-div""><p>How confident are you that your clockwise/counter-clockwise response just now was accurate? Please rate your confidence on the slider bar below.</p></div>","""","""","""",50,"""","""","""",46,"2021-12-31 03:30:02",73.168.250.133,"Mozilla/5.0 (Windows NT 10.0; Win64; x64) AppleWebKit/537.36 (KHTML, like Gecko) Chrome/96.0.4664.110 Safari/537.36",WebKit,Chrome,96.0.4664.110,Windows,10.0,ac0f2dffeffaa78d35a552e03d03f0a8
13,1,"""",practice_procedure,practice_procedure_condition,html-button-response,70,211616,0.0-9.1-1.1-0.1,3SD15I2WEBVYX2RZ7BNPTJHHA9P63F,A13FTIHWW9GE8X,3K772S5NPHCKR9O6IG0RXL6SDXXEH4,N27K4,N27K4,3K772S5NPHCKR9O6IG0RXL6SDXXEH4,3K772S5NPHCKR9O6IG0RXL6SDXXEH4,338054,338054,1,0.03,"""",3276.5,0,"<div id=""message-div""><p>You made too many incorrect responses. You will now repeat the practice.</p><p>Click the 'Next' button to continue.</p></div>","""","""","""","""","""","""","""","""","2021-12-31 03:30:02",73.168.250.133,"Mozilla/5.0 (Windows NT 10.0; Win64; x64) AppleWebKit/537.36 (KHTML, like Gecko) Chrome/96.0.4664.110 Safari/537.36",WebKit,Chrome,96.0.4664.110,Windows,10.0,ac0f2dffeffaa78d35a552e03d03f0a8
13,1,"""",practice_procedure,fixation,html-keyboard-response,71,212119,0.0-9.2-0.2-0.20,3SD15I2WEBVYX2RZ7BNPTJHHA9P63F,A13FTIHWW9GE8X,3K772S5NPHCKR9O6IG0RXL6SDXXEH4,N27K4,N27K4,3K772S5NPHCKR9O6IG0RXL6SDXXEH4,3K772S5NPHCKR9O6IG0RXL6SDXXEH4,338054,338054,1,0.03,"""",null,null,"<div class = fixationbox><div class = fixation>+</div></div>","""","""","""","""","""","""","""","""","2021-12-31 03:30:02",73.168.250.133,"Mozilla/5.0 (Windows NT 10.0; Win64; x64) AppleWebKit/537.36 (KHTML, like Gecko) Chrome/96.0.4664.110 Safari/537.36",WebKit,Chrome,96.0.4664.110,Windows,10.0,ac0f2dffeffaa78d35a552e03d03f0a8
13,1,"""",practice_procedure,stim_practice,canvas-button-response,72,213780,0.0-9.2-0.2-1.20,3SD15I2WEBVYX2RZ7BNPTJHHA9P63F,A13FTIHWW9GE8X,3K772S5NPHCKR9O6IG0RXL6SDXXEH4,N27K4,N27K4,3K772S5NPHCKR9O6IG0RXL6SDXXEH4,3K772S5NPHCKR9O6IG0RXL6SDXXEH4,338054,338054,1,0.03,"""",1600.3999999761581,1,practiceStim3,1,Clockwise,true,"""",0.3,60,0.99,"""","2021-12-31 03:30:02",73.168.250.133,"Mozilla/5.0 (Windows NT 10.0; Win64; x64) AppleWebKit/537.36 (KHTML, like Gecko) Chrome/96.0.4664.110 Safari/537.36",WebKit,Chrome,96.0.4664.110,Windows,10.0,ac0f2dffeffaa78d35a552e03d03f0a8
13,1,"""",practice_procedure,confidence_rating,html-slider-response,73,217264,0.0-9.2-0.2-2.20,3SD15I2WEBVYX2RZ7BNPTJHHA9P63F,A13FTIHWW9GE8X,3K772S5NPHCKR9O6IG0RXL6SDXXEH4,N27K4,N27K4,3K772S5NPHCKR9O6IG0RXL6SDXXEH4,3K772S5NPHCKR9O6IG0RXL6SDXXEH4,338054,338054,1,0.03,"""",3482.899999976158,35,"<div id=""message-div""><p>How confident are you that your clockwise/counter-clockwise response just now was accurate? Please rate your confidence on the slider bar below.</p></div>","""","""","""",50,"""","""","""",35,"2021-12-31 03:30:02",73.168.250.133,"Mozilla/5.0 (Windows NT 10.0; Win64; x64) AppleWebKit/537.36 (KHTML, like Gecko) Chrome/96.0.4664.110 Safari/537.36",WebKit,Chrome,96.0.4664.110,Windows,10.0,ac0f2dffeffaa78d35a552e03d03f0a8
13,1,"""",practice_procedure,fixation,html-keyboard-response,74,217765,0.0-9.2-0.2-0.21,3SD15I2WEBVYX2RZ7BNPTJHHA9P63F,A13FTIHWW9GE8X,3K772S5NPHCKR9O6IG0RXL6SDXXEH4,N27K4,N27K4,3K772S5NPHCKR9O6IG0RXL6SDXXEH4,3K772S5NPHCKR9O6IG0RXL6SDXXEH4,338054,338054,1,0.03,"""",null,null,"<div class = fixationbox><div class = fixation>+</div></div>","""","""","""","""","""","""","""","""","2021-12-31 03:30:02",73.168.250.133,"Mozilla/5.0 (Windows NT 10.0; Win64; x64) AppleWebKit/537.36 (KHTML, like Gecko) Chrome/96.0.4664.110 Safari/537.36",WebKit,Chrome,96.0.4664.110,Windows,10.0,ac0f2dffeffaa78d35a552e03d03f0a8
13,1,"""",practice_procedure,stim_practice,canvas-button-response,75,219476,0.0-9.2-0.2-1.21,3SD15I2WEBVYX2RZ7BNPTJHHA9P63F,A13FTIHWW9GE8X,3K772S5NPHCKR9O6IG0RXL6SDXXEH4,N27K4,N27K4,3K772S5NPHCKR9O6IG0RXL6SDXXEH4,3K772S5NPHCKR9O6IG0RXL6SDXXEH4,338054,338054,1,0.03,"""",1665.3999999761581,1,practiceStim3,1,Clockwise,true,"""",0.3,60,0.99,"""","2021-12-31 03:30:02",73.168.250.133,"Mozilla/5.0 (Windows NT 10.0; Win64; x64) AppleWebKit/537.36 (KHTML, like Gecko) Chrome/96.0.4664.110 Safari/537.36",WebKit,Chrome,96.0.4664.110,Windows,10.0,ac0f2dffeffaa78d35a552e03d03f0a8
13,1,"""",practice_procedure,confidence_rating,html-slider-response,76,221584,0.0-9.2-0.2-2.21,3SD15I2WEBVYX2RZ7BNPTJHHA9P63F,A13FTIHWW9GE8X,3K772S5NPHCKR9O6IG0RXL6SDXXEH4,N27K4,N27K4,3K772S5NPHCKR9O6IG0RXL6SDXXEH4,3K772S5NPHCKR9O6IG0RXL6SDXXEH4,338054,338054,1,0.03,"""",2107.100000023842,44,"<div id=""message-div""><p>How confident are you that your clockwise/counter-clockwise response just now was accurate? Please rate your confidence on the slider bar below.</p></div>","""","""","""",50,"""","""","""",44,"2021-12-31 03:30:02",73.168.250.133,"Mozilla/5.0 (Windows NT 10.0; Win64; x64) AppleWebKit/537.36 (KHTML, like Gecko) Chrome/96.0.4664.110 Safari/537.36",WebKit,Chrome,96.0.4664.110,Windows,10.0,ac0f2dffeffaa78d35a552e03d03f0a8
13,1,"""",practice_procedure,fixation,html-keyboard-response,77,222085,0.0-9.2-0.2-0.22,3SD15I2WEBVYX2RZ7BNPTJHHA9P63F,A13FTIHWW9GE8X,3K772S5NPHCKR9O6IG0RXL6SDXXEH4,N27K4,N27K4,3K772S5NPHCKR9O6IG0RXL6SDXXEH4,3K772S5NPHCKR9O6IG0RXL6SDXXEH4,338054,338054,1,0.03,"""",null,null,"<div class = fixationbox><div class = fixation>+</div></div>","""","""","""","""","""","""","""","""","2021-12-31 03:30:02",73.168.250.133,"Mozilla/5.0 (Windows NT 10.0; Win64; x64) AppleWebKit/537.36 (KHTML, like Gecko) Chrome/96.0.4664.110 Safari/537.36",WebKit,Chrome,96.0.4664.110,Windows,10.0,ac0f2dffeffaa78d35a552e03d03f0a8
13,1,"""",practice_procedure,stim_practice,canvas-button-response,78,223248,0.0-9.2-0.2-1.22,3SD15I2WEBVYX2RZ7BNPTJHHA9P63F,A13FTIHWW9GE8X,3K772S5NPHCKR9O6IG0RXL6SDXXEH4,N27K4,N27K4,3K772S5NPHCKR9O6IG0RXL6SDXXEH4,3K772S5NPHCKR9O6IG0RXL6SDXXEH4,338054,338054,1,0.03,"""",1118.3000000715256,0,practiceStim1,1,Clockwise,false,"""",0.01,60,0.99,"""","2021-12-31 03:30:02",73.168.250.133,"Mozilla/5.0 (Windows NT 10.0; Win64; x64) AppleWebKit/537.36 (KHTML, like Gecko) Chrome/96.0.4664.110 Safari/537.36",WebKit,Chrome,96.0.4664.110,Windows,10.0,ac0f2dffeffaa78d35a552e03d03f0a8
13,1,"""",practice_procedure,confidence_rating,html-slider-response,79,225420,0.0-9.2-0.2-2.22,3SD15I2WEBVYX2RZ7BNPTJHHA9P63F,A13FTIHWW9GE8X,3K772S5NPHCKR9O6IG0RXL6SDXXEH4,N27K4,N27K4,3K772S5NPHCKR9O6IG0RXL6SDXXEH4,3K772S5NPHCKR9O6IG0RXL6SDXXEH4,338054,338054,1,0.03,"""",2170.899999976158,46,"<div id=""message-div""><p>How confident are you that your clockwise/counter-clockwise response just now was accurate? Please rate your confidence on the slider bar below.</p></div>","""","""","""",50,"""","""","""",46,"2021-12-31 03:30:02",73.168.250.133,"Mozilla/5.0 (Windows NT 10.0; Win64; x64) AppleWebKit/537.36 (KHTML, like Gecko) Chrome/96.0.4664.110 Safari/537.36",WebKit,Chrome,96.0.4664.110,Windows,10.0,ac0f2dffeffaa78d35a552e03d03f0a8
13,1,"""",practice_procedure,fixation,html-keyboard-response,80,225922,0.0-9.2-0.2-0.23,3SD15I2WEBVYX2RZ7BNPTJHHA9P63F,A13FTIHWW9GE8X,3K772S5NPHCKR9O6IG0RXL6SDXXEH4,N27K4,N27K4,3K772S5NPHCKR9O6IG0RXL6SDXXEH4,3K772S5NPHCKR9O6IG0RXL6SDXXEH4,338054,338054,1,0.03,"""",null,null,"<div class = fixationbox><div class = fixation>+</div></div>","""","""","""","""","""","""","""","""","2021-12-31 03:30:02",73.168.250.133,"Mozilla/5.0 (Windows NT 10.0; Win64; x64) AppleWebKit/537.36 (KHTML, like Gecko) Chrome/96.0.4664.110 Safari/537.36",WebKit,Chrome,96.0.4664.110,Windows,10.0,ac0f2dffeffaa78d35a552e03d03f0a8
13,1,"""",practice_procedure,stim_practice,canvas-button-response,81,227076,0.0-9.2-0.2-1.23,3SD15I2WEBVYX2RZ7BNPTJHHA9P63F,A13FTIHWW9GE8X,3K772S5NPHCKR9O6IG0RXL6SDXXEH4,N27K4,N27K4,3K772S5NPHCKR9O6IG0RXL6SDXXEH4,3K772S5NPHCKR9O6IG0RXL6SDXXEH4,338054,338054,1,0.03,"""",1097.6000000238419,0,practiceStim4,0,Counter-clockwise,true,"""",0.3,120,0.99,"""","2021-12-31 03:30:02",73.168.250.133,"Mozilla/5.0 (Windows NT 10.0; Win64; x64) AppleWebKit/537.36 (KHTML, like Gecko) Chrome/96.0.4664.110 Safari/537.36",WebKit,Chrome,96.0.4664.110,Windows,10.0,ac0f2dffeffaa78d35a552e03d03f0a8
13,1,"""",practice_procedure,confidence_rating,html-slider-response,82,229145,0.0-9.2-0.2-2.23,3SD15I2WEBVYX2RZ7BNPTJHHA9P63F,A13FTIHWW9GE8X,3K772S5NPHCKR9O6IG0RXL6SDXXEH4,N27K4,N27K4,3K772S5NPHCKR9O6IG0RXL6SDXXEH4,3K772S5NPHCKR9O6IG0RXL6SDXXEH4,338054,338054,1,0.03,"""",2068.899999976158,45,"<div id=""message-div""><p>How confident are you that your clockwise/counter-clockwise response just now was accurate? Please rate your confidence on the slider bar below.</p></div>","""","""","""",50,"""","""","""",45,"2021-12-31 03:30:02",73.168.250.133,"Mozilla/5.0 (Windows NT 10.0; Win64; x64) AppleWebKit/537.36 (KHTML, like Gecko) Chrome/96.0.4664.110 Safari/537.36",WebKit,Chrome,96.0.4664.110,Windows,10.0,ac0f2dffeffaa78d35a552e03d03f0a8
13,1,"""",practice_procedure,fixation,html-keyboard-response,83,229647,0.0-9.2-0.2-0.24,3SD15I2WEBVYX2RZ7BNPTJHHA9P63F,A13FTIHWW9GE8X,3K772S5NPHCKR9O6IG0RXL6SDXXEH4,N27K4,N27K4,3K772S5NPHCKR9O6IG0RXL6SDXXEH4,3K772S5NPHCKR9O6IG0RXL6SDXXEH4,338054,338054,1,0.03,"""",null,null,"<div class = fixationbox><div class = fixation>+</div></div>","""","""","""","""","""","""","""","""","2021-12-31 03:30:02",73.168.250.133,"Mozilla/5.0 (Windows NT 10.0; Win64; x64) AppleWebKit/537.36 (KHTML, like Gecko) Chrome/96.0.4664.110 Safari/537.36",WebKit,Chrome,96.0.4664.110,Windows,10.0,ac0f2dffeffaa78d35a552e03d03f0a8
13,1,"""",practice_procedure,stim_practice,canvas-button-response,84,231860,0.0-9.2-0.2-1.24,3SD15I2WEBVYX2RZ7BNPTJHHA9P63F,A13FTIHWW9GE8X,3K772S5NPHCKR9O6IG0RXL6SDXXEH4,N27K4,N27K4,3K772S5NPHCKR9O6IG0RXL6SDXXEH4,3K772S5NPHCKR9O6IG0RXL6SDXXEH4,338054,338054,1,0.03,"""",2153.0999999046326,0,practiceStim4,0,Counter-clockwise,true,"""",0.3,120,0.99,"""","2021-12-31 03:30:02",73.168.250.133,"Mozilla/5.0 (Windows NT 10.0; Win64; x64) AppleWebKit/537.36 (KHTML, like Gecko) Chrome/96.0.4664.110 Safari/537.36",WebKit,Chrome,96.0.4664.110,Windows,10.0,ac0f2dffeffaa78d35a552e03d03f0a8
13,1,"""",practice_procedure,confidence_rating,html-slider-response,85,233790,0.0-9.2-0.2-2.24,3SD15I2WEBVYX2RZ7BNPTJHHA9P63F,A13FTIHWW9GE8X,3K772S5NPHCKR9O6IG0RXL6SDXXEH4,N27K4,N27K4,3K772S5NPHCKR9O6IG0RXL6SDXXEH4,3K772S5NPHCKR9O6IG0RXL6SDXXEH4,338054,338054,1,0.03,"""",1927,40,"<div id=""message-div""><p>How confident are you that your clockwise/counter-clockwise response just now was accurate? Please rate your confidence on the slider bar below.</p></div>","""","""","""",50,"""","""","""",40,"2021-12-31 03:30:02",73.168.250.133,"Mozilla/5.0 (Windows NT 10.0; Win64; x64) AppleWebKit/537.36 (KHTML, like Gecko) Chrome/96.0.4664.110 Safari/537.36",WebKit,Chrome,96.0.4664.110,Windows,10.0,ac0f2dffeffaa78d35a552e03d03f0a8
13,1,"""",practice_procedure,fixation,html-keyboard-response,86,234291,0.0-9.2-0.2-0.25,3SD15I2WEBVYX2RZ7BNPTJHHA9P63F,A13FTIHWW9GE8X,3K772S5NPHCKR9O6IG0RXL6SDXXEH4,N27K4,N27K4,3K772S5NPHCKR9O6IG0RXL6SDXXEH4,3K772S5NPHCKR9O6IG0RXL6SDXXEH4,338054,338054,1,0.03,"""",null,null,"<div class = fixationbox><div class = fixation>+</div></div>","""","""","""","""","""","""","""","""","2021-12-31 03:30:02",73.168.250.133,"Mozilla/5.0 (Windows NT 10.0; Win64; x64) AppleWebKit/537.36 (KHTML, like Gecko) Chrome/96.0.4664.110 Safari/537.36",WebKit,Chrome,96.0.4664.110,Windows,10.0,ac0f2dffeffaa78d35a552e03d03f0a8
13,1,"""",practice_procedure,stim_practice,canvas-button-response,87,235648,0.0-9.2-0.2-1.25,3SD15I2WEBVYX2RZ7BNPTJHHA9P63F,A13FTIHWW9GE8X,3K772S5NPHCKR9O6IG0RXL6SDXXEH4,N27K4,N27K4,3K772S5NPHCKR9O6IG0RXL6SDXXEH4,3K772S5NPHCKR9O6IG0RXL6SDXXEH4,338054,338054,1,0.03,"""",1310.9000000953674,1,practiceStim1,1,Clockwise,true,"""",0.01,60,0.99,"""","2021-12-31 03:30:02",73.168.250.133,"Mozilla/5.0 (Windows NT 10.0; Win64; x64) AppleWebKit/537.36 (KHTML, like Gecko) Chrome/96.0.4664.110 Safari/537.36",WebKit,Chrome,96.0.4664.110,Windows,10.0,ac0f2dffeffaa78d35a552e03d03f0a8
13,1,"""",practice_procedure,confidence_rating,html-slider-response,88,237892,0.0-9.2-0.2-2.25,3SD15I2WEBVYX2RZ7BNPTJHHA9P63F,A13FTIHWW9GE8X,3K772S5NPHCKR9O6IG0RXL6SDXXEH4,N27K4,N27K4,3K772S5NPHCKR9O6IG0RXL6SDXXEH4,3K772S5NPHCKR9O6IG0RXL6SDXXEH4,338054,338054,1,0.03,"""",2243,34,"<div id=""message-div""><p>How confident are you that your clockwise/counter-clockwise response just now was accurate? Please rate your confidence on the slider bar below.</p></div>","""","""","""",50,"""","""","""",34,"2021-12-31 03:30:02",73.168.250.133,"Mozilla/5.0 (Windows NT 10.0; Win64; x64) AppleWebKit/537.36 (KHTML, like Gecko) Chrome/96.0.4664.110 Safari/537.36",WebKit,Chrome,96.0.4664.110,Windows,10.0,ac0f2dffeffaa78d35a552e03d03f0a8
13,1,"""",practice_procedure,fixation,html-keyboard-response,89,238395,0.0-9.2-0.2-0.26,3SD15I2WEBVYX2RZ7BNPTJHHA9P63F,A13FTIHWW9GE8X,3K772S5NPHCKR9O6IG0RXL6SDXXEH4,N27K4,N27K4,3K772S5NPHCKR9O6IG0RXL6SDXXEH4,3K772S5NPHCKR9O6IG0RXL6SDXXEH4,338054,338054,1,0.03,"""",null,null,"<div class = fixationbox><div class = fixation>+</div></div>","""","""","""","""","""","""","""","""","2021-12-31 03:30:02",73.168.250.133,"Mozilla/5.0 (Windows NT 10.0; Win64; x64) AppleWebKit/537.36 (KHTML, like Gecko) Chrome/96.0.4664.110 Safari/537.36",WebKit,Chrome,96.0.4664.110,Windows,10.0,ac0f2dffeffaa78d35a552e03d03f0a8
13,1,"""",practice_procedure,stim_practice,canvas-button-response,90,239564,0.0-9.2-0.2-1.26,3SD15I2WEBVYX2RZ7BNPTJHHA9P63F,A13FTIHWW9GE8X,3K772S5NPHCKR9O6IG0RXL6SDXXEH4,N27K4,N27K4,3K772S5NPHCKR9O6IG0RXL6SDXXEH4,3K772S5NPHCKR9O6IG0RXL6SDXXEH4,338054,338054,1,0.03,"""",1133.1999999284744,0,practiceStim4,0,Counter-clockwise,true,"""",0.3,120,0.99,"""","2021-12-31 03:30:02",73.168.250.133,"Mozilla/5.0 (Windows NT 10.0; Win64; x64) AppleWebKit/537.36 (KHTML, like Gecko) Chrome/96.0.4664.110 Safari/537.36",WebKit,Chrome,96.0.4664.110,Windows,10.0,ac0f2dffeffaa78d35a552e03d03f0a8
13,1,"""",practice_procedure,confidence_rating,html-slider-response,91,241414,0.0-9.2-0.2-2.26,3SD15I2WEBVYX2RZ7BNPTJHHA9P63F,A13FTIHWW9GE8X,3K772S5NPHCKR9O6IG0RXL6SDXXEH4,N27K4,N27K4,3K772S5NPHCKR9O6IG0RXL6SDXXEH4,3K772S5NPHCKR9O6IG0RXL6SDXXEH4,338054,338054,1,0.03,"""",1849.0999999046326,40,"<div id=""message-div""><p>How confident are you that your clockwise/counter-clockwise response just now was accurate? Please rate your confidence on the slider bar below.</p></div>","""","""","""",50,"""","""","""",40,"2021-12-31 03:30:02",73.168.250.133,"Mozilla/5.0 (Windows NT 10.0; Win64; x64) AppleWebKit/537.36 (KHTML, like Gecko) Chrome/96.0.4664.110 Safari/537.36",WebKit,Chrome,96.0.4664.110,Windows,10.0,ac0f2dffeffaa78d35a552e03d03f0a8
13,1,"""",practice_procedure,fixation,html-keyboard-response,92,241915,0.0-9.2-0.2-0.27,3SD15I2WEBVYX2RZ7BNPTJHHA9P63F,A13FTIHWW9GE8X,3K772S5NPHCKR9O6IG0RXL6SDXXEH4,N27K4,N27K4,3K772S5NPHCKR9O6IG0RXL6SDXXEH4,3K772S5NPHCKR9O6IG0RXL6SDXXEH4,338054,338054,1,0.03,"""",null,null,"<div class = fixationbox><div class = fixation>+</div></div>","""","""","""","""","""","""","""","""","2021-12-31 03:30:02",73.168.250.133,"Mozilla/5.0 (Windows NT 10.0; Win64; x64) AppleWebKit/537.36 (KHTML, like Gecko) Chrome/96.0.4664.110 Safari/537.36",WebKit,Chrome,96.0.4664.110,Windows,10.0,ac0f2dffeffaa78d35a552e03d03f0a8
13,1,"""",practice_procedure,stim_practice,canvas-button-response,93,243102,0.0-9.2-0.2-1.27,3SD15I2WEBVYX2RZ7BNPTJHHA9P63F,A13FTIHWW9GE8X,3K772S5NPHCKR9O6IG0RXL6SDXXEH4,N27K4,N27K4,3K772S5NPHCKR9O6IG0RXL6SDXXEH4,3K772S5NPHCKR9O6IG0RXL6SDXXEH4,338054,338054,1,0.03,"""",1154.8000000715256,0,practiceStim4,0,Counter-clockwise,true,"""",0.3,120,0.99,"""","2021-12-31 03:30:02",73.168.250.133,"Mozilla/5.0 (Windows NT 10.0; Win64; x64) AppleWebKit/537.36 (KHTML, like Gecko) Chrome/96.0.4664.110 Safari/537.36",WebKit,Chrome,96.0.4664.110,Windows,10.0,ac0f2dffeffaa78d35a552e03d03f0a8
13,1,"""",practice_procedure,confidence_rating,html-slider-response,94,245132,0.0-9.2-0.2-2.27,3SD15I2WEBVYX2RZ7BNPTJHHA9P63F,A13FTIHWW9GE8X,3K772S5NPHCKR9O6IG0RXL6SDXXEH4,N27K4,N27K4,3K772S5NPHCKR9O6IG0RXL6SDXXEH4,3K772S5NPHCKR9O6IG0RXL6SDXXEH4,338054,338054,1,0.03,"""",2029.1000000238419,41,"<div id=""message-div""><p>How confident are you that your clockwise/counter-clockwise response just now was accurate? Please rate your confidence on the slider bar below.</p></div>","""","""","""",50,"""","""","""",41,"2021-12-31 03:30:02",73.168.250.133,"Mozilla/5.0 (Windows NT 10.0; Win64; x64) AppleWebKit/537.36 (KHTML, like Gecko) Chrome/96.0.4664.110 Safari/537.36",WebKit,Chrome,96.0.4664.110,Windows,10.0,ac0f2dffeffaa78d35a552e03d03f0a8
13,1,"""",practice_procedure,fixation,html-keyboard-response,95,245636,0.0-9.2-0.2-0.28,3SD15I2WEBVYX2RZ7BNPTJHHA9P63F,A13FTIHWW9GE8X,3K772S5NPHCKR9O6IG0RXL6SDXXEH4,N27K4,N27K4,3K772S5NPHCKR9O6IG0RXL6SDXXEH4,3K772S5NPHCKR9O6IG0RXL6SDXXEH4,338054,338054,1,0.03,"""",null,null,"<div class = fixationbox><div class = fixation>+</div></div>","""","""","""","""","""","""","""","""","2021-12-31 03:30:02",73.168.250.133,"Mozilla/5.0 (Windows NT 10.0; Win64; x64) AppleWebKit/537.36 (KHTML, like Gecko) Chrome/96.0.4664.110 Safari/537.36",WebKit,Chrome,96.0.4664.110,Windows,10.0,ac0f2dffeffaa78d35a552e03d03f0a8
13,1,"""",practice_procedure,stim_practice,canvas-button-response,96,246874,0.0-9.2-0.2-1.28,3SD15I2WEBVYX2RZ7BNPTJHHA9P63F,A13FTIHWW9GE8X,3K772S5NPHCKR9O6IG0RXL6SDXXEH4,N27K4,N27K4,3K772S5NPHCKR9O6IG0RXL6SDXXEH4,3K772S5NPHCKR9O6IG0RXL6SDXXEH4,338054,338054,1,0.03,"""",1200.8000000715256,0,practiceStim4,0,Counter-clockwise,true,"""",0.3,120,0.99,"""","2021-12-31 03:30:02",73.168.250.133,"Mozilla/5.0 (Windows NT 10.0; Win64; x64) AppleWebKit/537.36 (KHTML, like Gecko) Chrome/96.0.4664.110 Safari/537.36",WebKit,Chrome,96.0.4664.110,Windows,10.0,ac0f2dffeffaa78d35a552e03d03f0a8
13,1,"""",practice_procedure,confidence_rating,html-slider-response,97,248873,0.0-9.2-0.2-2.28,3SD15I2WEBVYX2RZ7BNPTJHHA9P63F,A13FTIHWW9GE8X,3K772S5NPHCKR9O6IG0RXL6SDXXEH4,N27K4,N27K4,3K772S5NPHCKR9O6IG0RXL6SDXXEH4,3K772S5NPHCKR9O6IG0RXL6SDXXEH4,338054,338054,1,0.03,"""",1998.7999999523163,40,"<div id=""message-div""><p>How confident are you that your clockwise/counter-clockwise response just now was accurate? Please rate your confidence on the slider bar below.</p></div>","""","""","""",50,"""","""","""",40,"2021-12-31 03:30:02",73.168.250.133,"Mozilla/5.0 (Windows NT 10.0; Win64; x64) AppleWebKit/537.36 (KHTML, like Gecko) Chrome/96.0.4664.110 Safari/537.36",WebKit,Chrome,96.0.4664.110,Windows,10.0,ac0f2dffeffaa78d35a552e03d03f0a8
13,1,"""",practice_procedure,fixation,html-keyboard-response,98,249374,0.0-9.2-0.2-0.29,3SD15I2WEBVYX2RZ7BNPTJHHA9P63F,A13FTIHWW9GE8X,3K772S5NPHCKR9O6IG0RXL6SDXXEH4,N27K4,N27K4,3K772S5NPHCKR9O6IG0RXL6SDXXEH4,3K772S5NPHCKR9O6IG0RXL6SDXXEH4,338054,338054,1,0.03,"""",null,null,"<div class = fixationbox><div class = fixation>+</div></div>","""","""","""","""","""","""","""","""","2021-12-31 03:30:02",73.168.250.133,"Mozilla/5.0 (Windows NT 10.0; Win64; x64) AppleWebKit/537.36 (KHTML, like Gecko) Chrome/96.0.4664.110 Safari/537.36",WebKit,Chrome,96.0.4664.110,Windows,10.0,ac0f2dffeffaa78d35a552e03d03f0a8
13,1,"""",practice_procedure,stim_practice,canvas-button-response,99,250670,0.0-9.2-0.2-1.29,3SD15I2WEBVYX2RZ7BNPTJHHA9P63F,A13FTIHWW9GE8X,3K772S5NPHCKR9O6IG0RXL6SDXXEH4,N27K4,N27K4,3K772S5NPHCKR9O6IG0RXL6SDXXEH4,3K772S5NPHCKR9O6IG0RXL6SDXXEH4,338054,338054,1,0.03,"""",1241.1000000238419,1,practiceStim1,1,Clockwise,true,"""",0.01,60,0.99,"""","2021-12-31 03:30:02",73.168.250.133,"Mozilla/5.0 (Windows NT 10.0; Win64; x64) AppleWebKit/537.36 (KHTML, like Gecko) Chrome/96.0.4664.110 Safari/537.36",WebKit,Chrome,96.0.4664.110,Windows,10.0,ac0f2dffeffaa78d35a552e03d03f0a8
13,1,"""",practice_procedure,confidence_rating,html-slider-response,100,252685,0.0-9.2-0.2-2.29,3SD15I2WEBVYX2RZ7BNPTJHHA9P63F,A13FTIHWW9GE8X,3K772S5NPHCKR9O6IG0RXL6SDXXEH4,N27K4,N27K4,3K772S5NPHCKR9O6IG0RXL6SDXXEH4,3K772S5NPHCKR9O6IG0RXL6SDXXEH4,338054,338054,1,0.03,"""",2014.5,37,"<div id=""message-div""><p>How confident are you that your clockwise/counter-clockwise response just now was accurate? Please rate your confidence on the slider bar below.</p></div>","""","""","""",50,"""","""","""",37,"2021-12-31 03:30:02",73.168.250.133,"Mozilla/5.0 (Windows NT 10.0; Win64; x64) AppleWebKit/537.36 (KHTML, like Gecko) Chrome/96.0.4664.110 Safari/537.36",WebKit,Chrome,96.0.4664.110,Windows,10.0,ac0f2dffeffaa78d35a552e03d03f0a8
13,1,"""",pre-test,test_instruction,instructions,101,280100,0.0-10.0,3SD15I2WEBVYX2RZ7BNPTJHHA9P63F,A13FTIHWW9GE8X,3K772S5NPHCKR9O6IG0RXL6SDXXEH4,N27K4,N27K4,3K772S5NPHCKR9O6IG0RXL6SDXXEH4,3K772S5NPHCKR9O6IG0RXL6SDXXEH4,338054,338054,1,0.03,"[{""page_index"":0,""viewing_time"":27410.299999952316}]",27410.600000023842,"""","""","""","""","""","""","""","""","""","""","2021-12-31 03:30:02",73.168.250.133,"Mozilla/5.0 (Windows NT 10.0; Win64; x64) AppleWebKit/537.36 (KHTML, like Gecko) Chrome/96.0.4664.110 Safari/537.36",WebKit,Chrome,96.0.4664.110,Windows,10.0,ac0f2dffeffaa78d35a552e03d03f0a8
13,1,"""",test_procedure,fixation,html-keyboard-response,102,280601,0.0-11.0-0.0-0.0,3SD15I2WEBVYX2RZ7BNPTJHHA9P63F,A13FTIHWW9GE8X,3K772S5NPHCKR9O6IG0RXL6SDXXEH4,N27K4,N27K4,3K772S5NPHCKR9O6IG0RXL6SDXXEH4,3K772S5NPHCKR9O6IG0RXL6SDXXEH4,338054,338054,1,0.03,"""",null,null,"<div class = fixationbox><div class = fixation>+</div></div>","""","""","""","""","""","""","""","""","2021-12-31 03:30:02",73.168.250.133,"Mozilla/5.0 (Windows NT 10.0; Win64; x64) AppleWebKit/537.36 (KHTML, like Gecko) Chrome/96.0.4664.110 Safari/537.36",WebKit,Chrome,96.0.4664.110,Windows,10.0,ac0f2dffeffaa78d35a552e03d03f0a8
13,1,"""",test_procedure,stim_test,canvas-button-response,103,282311,0.0-11.0-0.0-1.0,3SD15I2WEBVYX2RZ7BNPTJHHA9P63F,A13FTIHWW9GE8X,3K772S5NPHCKR9O6IG0RXL6SDXXEH4,N27K4,N27K4,3K772S5NPHCKR9O6IG0RXL6SDXXEH4,3K772S5NPHCKR9O6IG0RXL6SDXXEH4,338054,338054,1,0.03,"""",1656.5999999046326,0,catchStim7,1,Clockwise,false,"""",0.3,60,0.001,"""","2021-12-31 03:30:02",73.168.250.133,"Mozilla/5.0 (Windows NT 10.0; Win64; x64) AppleWebKit/537.36 (KHTML, like Gecko) Chrome/96.0.4664.110 Safari/537.36",WebKit,Chrome,96.0.4664.110,Windows,10.0,ac0f2dffeffaa78d35a552e03d03f0a8
13,1,"""",test_procedure,confidence_rating,html-slider-response,104,285215,0.0-11.0-0.0-2.0,3SD15I2WEBVYX2RZ7BNPTJHHA9P63F,A13FTIHWW9GE8X,3K772S5NPHCKR9O6IG0RXL6SDXXEH4,N27K4,N27K4,3K772S5NPHCKR9O6IG0RXL6SDXXEH4,3K772S5NPHCKR9O6IG0RXL6SDXXEH4,338054,338054,1,0.03,"""",2902.8000000715256,40,"<div id=""message-div""><p>How confident are you that your clockwise/counter-clockwise response just now was accurate? Please rate your confidence on the slider bar below.</p></div>","""","""","""",50,"""","""","""",40,"2021-12-31 03:30:02",73.168.250.133,"Mozilla/5.0 (Windows NT 10.0; Win64; x64) AppleWebKit/537.36 (KHTML, like Gecko) Chrome/96.0.4664.110 Safari/537.36",WebKit,Chrome,96.0.4664.110,Windows,10.0,ac0f2dffeffaa78d35a552e03d03f0a8
13,1,"""",test_procedure,fixation,html-keyboard-response,105,285722,0.0-11.0-0.0-0.1,3SD15I2WEBVYX2RZ7BNPTJHHA9P63F,A13FTIHWW9GE8X,3K772S5NPHCKR9O6IG0RXL6SDXXEH4,N27K4,N27K4,3K772S5NPHCKR9O6IG0RXL6SDXXEH4,3K772S5NPHCKR9O6IG0RXL6SDXXEH4,338054,338054,1,0.03,"""",null,null,"<div class = fixationbox><div class = fixation>+</div></div>","""","""","""","""","""","""","""","""","2021-12-31 03:30:02",73.168.250.133,"Mozilla/5.0 (Windows NT 10.0; Win64; x64) AppleWebKit/537.36 (KHTML, like Gecko) Chrome/96.0.4664.110 Safari/537.36",WebKit,Chrome,96.0.4664.110,Windows,10.0,ac0f2dffeffaa78d35a552e03d03f0a8
13,1,"""",test_procedure,stim_test,canvas-button-response,106,287465,0.0-11.0-0.0-1.1,3SD15I2WEBVYX2RZ7BNPTJHHA9P63F,A13FTIHWW9GE8X,3K772S5NPHCKR9O6IG0RXL6SDXXEH4,N27K4,N27K4,3K772S5NPHCKR9O6IG0RXL6SDXXEH4,3K772S5NPHCKR9O6IG0RXL6SDXXEH4,338054,338054,1,0.03,"""",1703.7999999523163,1,catchStim4,0,Counter-clockwise,false,"""",0.01,120,0.001,"""","2021-12-31 03:30:02",73.168.250.133,"Mozilla/5.0 (Windows NT 10.0; Win64; x64) AppleWebKit/537.36 (KHTML, like Gecko) Chrome/96.0.4664.110 Safari/537.36",WebKit,Chrome,96.0.4664.110,Windows,10.0,ac0f2dffeffaa78d35a552e03d03f0a8
13,1,"""",test_procedure,confidence_rating,html-slider-response,107,289553,0.0-11.0-0.0-2.1,3SD15I2WEBVYX2RZ7BNPTJHHA9P63F,A13FTIHWW9GE8X,3K772S5NPHCKR9O6IG0RXL6SDXXEH4,N27K4,N27K4,3K772S5NPHCKR9O6IG0RXL6SDXXEH4,3K772S5NPHCKR9O6IG0RXL6SDXXEH4,338054,338054,1,0.03,"""",2085.100000023842,34,"<div id=""message-div""><p>How confident are you that your clockwise/counter-clockwise response just now was accurate? Please rate your confidence on the slider bar below.</p></div>","""","""","""",50,"""","""","""",34,"2021-12-31 03:30:02",73.168.250.133,"Mozilla/5.0 (Windows NT 10.0; Win64; x64) AppleWebKit/537.36 (KHTML, like Gecko) Chrome/96.0.4664.110 Safari/537.36",WebKit,Chrome,96.0.4664.110,Windows,10.0,ac0f2dffeffaa78d35a552e03d03f0a8
13,1,"""",test_procedure,fixation,html-keyboard-response,108,290055,0.0-11.0-0.0-0.2,3SD15I2WEBVYX2RZ7BNPTJHHA9P63F,A13FTIHWW9GE8X,3K772S5NPHCKR9O6IG0RXL6SDXXEH4,N27K4,N27K4,3K772S5NPHCKR9O6IG0RXL6SDXXEH4,3K772S5NPHCKR9O6IG0RXL6SDXXEH4,338054,338054,1,0.03,"""",null,null,"<div class = fixationbox><div class = fixation>+</div></div>","""","""","""","""","""","""","""","""","2021-12-31 03:30:02",73.168.250.133,"Mozilla/5.0 (Windows NT 10.0; Win64; x64) AppleWebKit/537.36 (KHTML, like Gecko) Chrome/96.0.4664.110 Safari/537.36",WebKit,Chrome,96.0.4664.110,Windows,10.0,ac0f2dffeffaa78d35a552e03d03f0a8
13,1,"""",test_procedure,stim_test,canvas-button-response,109,291175,0.0-11.0-0.0-1.2,3SD15I2WEBVYX2RZ7BNPTJHHA9P63F,A13FTIHWW9GE8X,3K772S5NPHCKR9O6IG0RXL6SDXXEH4,N27K4,N27K4,3K772S5NPHCKR9O6IG0RXL6SDXXEH4,3K772S5NPHCKR9O6IG0RXL6SDXXEH4,338054,338054,1,0.03,"""",1088.7999999523163,0,stim2,0,Counter-clockwise,true,"""",0.01,120,"""","""","2021-12-31 03:30:02",73.168.250.133,"Mozilla/5.0 (Windows NT 10.0; Win64; x64) AppleWebKit/537.36 (KHTML, like Gecko) Chrome/96.0.4664.110 Safari/537.36",WebKit,Chrome,96.0.4664.110,Windows,10.0,ac0f2dffeffaa78d35a552e03d03f0a8
13,1,"""",test_procedure,confidence_rating,html-slider-response,110,293631,0.0-11.0-0.0-2.2,3SD15I2WEBVYX2RZ7BNPTJHHA9P63F,A13FTIHWW9GE8X,3K772S5NPHCKR9O6IG0RXL6SDXXEH4,N27K4,N27K4,3K772S5NPHCKR9O6IG0RXL6SDXXEH4,3K772S5NPHCKR9O6IG0RXL6SDXXEH4,338054,338054,1,0.03,"""",2455.4000000953674,41,"<div id=""message-div""><p>How confident are you that your clockwise/counter-clockwise response just now was accurate? Please rate your confidence on the slider bar below.</p></div>","""","""","""",50,"""","""","""",41,"2021-12-31 03:30:02",73.168.250.133,"Mozilla/5.0 (Windows NT 10.0; Win64; x64) AppleWebKit/537.36 (KHTML, like Gecko) Chrome/96.0.4664.110 Safari/537.36",WebKit,Chrome,96.0.4664.110,Windows,10.0,ac0f2dffeffaa78d35a552e03d03f0a8
13,1,"""",test_procedure,fixation,html-keyboard-response,111,294136,0.0-11.0-0.0-0.3,3SD15I2WEBVYX2RZ7BNPTJHHA9P63F,A13FTIHWW9GE8X,3K772S5NPHCKR9O6IG0RXL6SDXXEH4,N27K4,N27K4,3K772S5NPHCKR9O6IG0RXL6SDXXEH4,3K772S5NPHCKR9O6IG0RXL6SDXXEH4,338054,338054,1,0.03,"""",null,null,"<div class = fixationbox><div class = fixation>+</div></div>","""","""","""","""","""","""","""","""","2021-12-31 03:30:02",73.168.250.133,"Mozilla/5.0 (Windows NT 10.0; Win64; x64) AppleWebKit/537.36 (KHTML, like Gecko) Chrome/96.0.4664.110 Safari/537.36",WebKit,Chrome,96.0.4664.110,Windows,10.0,ac0f2dffeffaa78d35a552e03d03f0a8
13,1,"""",test_procedure,stim_test,canvas-button-response,112,295381,0.0-11.0-0.0-1.3,3SD15I2WEBVYX2RZ7BNPTJHHA9P63F,A13FTIHWW9GE8X,3K772S5NPHCKR9O6IG0RXL6SDXXEH4,N27K4,N27K4,3K772S5NPHCKR9O6IG0RXL6SDXXEH4,3K772S5NPHCKR9O6IG0RXL6SDXXEH4,338054,338054,1,0.03,"""",1211.7000000476837,1,catchStim1,1,Clockwise,true,"""",0.01,60,0.6,"""","2021-12-31 03:30:02",73.168.250.133,"Mozilla/5.0 (Windows NT 10.0; Win64; x64) AppleWebKit/537.36 (KHTML, like Gecko) Chrome/96.0.4664.110 Safari/537.36",WebKit,Chrome,96.0.4664.110,Windows,10.0,ac0f2dffeffaa78d35a552e03d03f0a8
13,1,"""",test_procedure,confidence_rating,html-slider-response,113,297295,0.0-11.0-0.0-2.3,3SD15I2WEBVYX2RZ7BNPTJHHA9P63F,A13FTIHWW9GE8X,3K772S5NPHCKR9O6IG0RXL6SDXXEH4,N27K4,N27K4,3K772S5NPHCKR9O6IG0RXL6SDXXEH4,3K772S5NPHCKR9O6IG0RXL6SDXXEH4,338054,338054,1,0.03,"""",1913,33,"<div id=""message-div""><p>How confident are you that your clockwise/counter-clockwise response just now was accurate? Please rate your confidence on the slider bar below.</p></div>","""","""","""",50,"""","""","""",33,"2021-12-31 03:30:02",73.168.250.133,"Mozilla/5.0 (Windows NT 10.0; Win64; x64) AppleWebKit/537.36 (KHTML, like Gecko) Chrome/96.0.4664.110 Safari/537.36",WebKit,Chrome,96.0.4664.110,Windows,10.0,ac0f2dffeffaa78d35a552e03d03f0a8
13,1,"""",test_procedure,fixation,html-keyboard-response,114,297797,0.0-11.0-0.0-0.4,3SD15I2WEBVYX2RZ7BNPTJHHA9P63F,A13FTIHWW9GE8X,3K772S5NPHCKR9O6IG0RXL6SDXXEH4,N27K4,N27K4,3K772S5NPHCKR9O6IG0RXL6SDXXEH4,3K772S5NPHCKR9O6IG0RXL6SDXXEH4,338054,338054,1,0.03,"""",null,null,"<div class = fixationbox><div class = fixation>+</div></div>","""","""","""","""","""","""","""","""","2021-12-31 03:30:02",73.168.250.133,"Mozilla/5.0 (Windows NT 10.0; Win64; x64) AppleWebKit/537.36 (KHTML, like Gecko) Chrome/96.0.4664.110 Safari/537.36",WebKit,Chrome,96.0.4664.110,Windows,10.0,ac0f2dffeffaa78d35a552e03d03f0a8
13,1,"""",test_procedure,stim_test,canvas-button-response,115,298997,0.0-11.0-0.0-1.4,3SD15I2WEBVYX2RZ7BNPTJHHA9P63F,A13FTIHWW9GE8X,3K772S5NPHCKR9O6IG0RXL6SDXXEH4,N27K4,N27K4,3K772S5NPHCKR9O6IG0RXL6SDXXEH4,3K772S5NPHCKR9O6IG0RXL6SDXXEH4,338054,338054,1,0.03,"""",1162.8000000715256,0,stim2,0,Counter-clockwise,true,"""",0.01,120,"""","""","2021-12-31 03:30:02",73.168.250.133,"Mozilla/5.0 (Windows NT 10.0; Win64; x64) AppleWebKit/537.36 (KHTML, like Gecko) Chrome/96.0.4664.110 Safari/537.36",WebKit,Chrome,96.0.4664.110,Windows,10.0,ac0f2dffeffaa78d35a552e03d03f0a8
13,1,"""",test_procedure,confidence_rating,html-slider-response,116,300903,0.0-11.0-0.0-2.4,3SD15I2WEBVYX2RZ7BNPTJHHA9P63F,A13FTIHWW9GE8X,3K772S5NPHCKR9O6IG0RXL6SDXXEH4,N27K4,N27K4,3K772S5NPHCKR9O6IG0RXL6SDXXEH4,3K772S5NPHCKR9O6IG0RXL6SDXXEH4,338054,338054,1,0.03,"""",1905.2999999523163,40,"<div id=""message-div""><p>How confident are you that your clockwise/counter-clockwise response just now was accurate? Please rate your confidence on the slider bar below.</p></div>","""","""","""",50,"""","""","""",40,"2021-12-31 03:30:02",73.168.250.133,"Mozilla/5.0 (Windows NT 10.0; Win64; x64) AppleWebKit/537.36 (KHTML, like Gecko) Chrome/96.0.4664.110 Safari/537.36",WebKit,Chrome,96.0.4664.110,Windows,10.0,ac0f2dffeffaa78d35a552e03d03f0a8
13,1,"""",test_procedure,fixation,html-keyboard-response,117,301407,0.0-11.0-0.0-0.5,3SD15I2WEBVYX2RZ7BNPTJHHA9P63F,A13FTIHWW9GE8X,3K772S5NPHCKR9O6IG0RXL6SDXXEH4,N27K4,N27K4,3K772S5NPHCKR9O6IG0RXL6SDXXEH4,3K772S5NPHCKR9O6IG0RXL6SDXXEH4,338054,338054,1,0.03,"""",null,null,"<div class = fixationbox><div class = fixation>+</div></div>","""","""","""","""","""","""","""","""","2021-12-31 03:30:02",73.168.250.133,"Mozilla/5.0 (Windows NT 10.0; Win64; x64) AppleWebKit/537.36 (KHTML, like Gecko) Chrome/96.0.4664.110 Safari/537.36",WebKit,Chrome,96.0.4664.110,Windows,10.0,ac0f2dffeffaa78d35a552e03d03f0a8
13,1,"""",test_procedure,stim_test,canvas-button-response,118,303030,0.0-11.0-0.0-1.5,3SD15I2WEBVYX2RZ7BNPTJHHA9P63F,A13FTIHWW9GE8X,3K772S5NPHCKR9O6IG0RXL6SDXXEH4,N27K4,N27K4,3K772S5NPHCKR9O6IG0RXL6SDXXEH4,3K772S5NPHCKR9O6IG0RXL6SDXXEH4,338054,338054,1,0.03,"""",1589,1,stim1,1,Clockwise,true,"""",0.01,60,"""","""","2021-12-31 03:30:02",73.168.250.133,"Mozilla/5.0 (Windows NT 10.0; Win64; x64) AppleWebKit/537.36 (KHTML, like Gecko) Chrome/96.0.4664.110 Safari/537.36",WebKit,Chrome,96.0.4664.110,Windows,10.0,ac0f2dffeffaa78d35a552e03d03f0a8
13,1,"""",test_procedure,confidence_rating,html-slider-response,119,304943,0.0-11.0-0.0-2.5,3SD15I2WEBVYX2RZ7BNPTJHHA9P63F,A13FTIHWW9GE8X,3K772S5NPHCKR9O6IG0RXL6SDXXEH4,N27K4,N27K4,3K772S5NPHCKR9O6IG0RXL6SDXXEH4,3K772S5NPHCKR9O6IG0RXL6SDXXEH4,338054,338054,1,0.03,"""",1913,38,"<div id=""message-div""><p>How confident are you that your clockwise/counter-clockwise response just now was accurate? Please rate your confidence on the slider bar below.</p></div>","""","""","""",50,"""","""","""",38,"2021-12-31 03:30:02",73.168.250.133,"Mozilla/5.0 (Windows NT 10.0; Win64; x64) AppleWebKit/537.36 (KHTML, like Gecko) Chrome/96.0.4664.110 Safari/537.36",WebKit,Chrome,96.0.4664.110,Windows,10.0,ac0f2dffeffaa78d35a552e03d03f0a8
13,1,"""",test_procedure,fixation,html-keyboard-response,120,305445,0.0-11.0-0.0-0.6,3SD15I2WEBVYX2RZ7BNPTJHHA9P63F,A13FTIHWW9GE8X,3K772S5NPHCKR9O6IG0RXL6SDXXEH4,N27K4,N27K4,3K772S5NPHCKR9O6IG0RXL6SDXXEH4,3K772S5NPHCKR9O6IG0RXL6SDXXEH4,338054,338054,1,0.03,"""",null,null,"<div class = fixationbox><div class = fixation>+</div></div>","""","""","""","""","""","""","""","""","2021-12-31 03:30:02",73.168.250.133,"Mozilla/5.0 (Windows NT 10.0; Win64; x64) AppleWebKit/537.36 (KHTML, like Gecko) Chrome/96.0.4664.110 Safari/537.36",WebKit,Chrome,96.0.4664.110,Windows,10.0,ac0f2dffeffaa78d35a552e03d03f0a8
13,1,"""",test_procedure,stim_test,canvas-button-response,121,306600,0.0-11.0-0.0-1.6,3SD15I2WEBVYX2RZ7BNPTJHHA9P63F,A13FTIHWW9GE8X,3K772S5NPHCKR9O6IG0RXL6SDXXEH4,N27K4,N27K4,3K772S5NPHCKR9O6IG0RXL6SDXXEH4,3K772S5NPHCKR9O6IG0RXL6SDXXEH4,338054,338054,1,0.03,"""",1119.7999999523163,0,stim4,0,Counter-clockwise,true,"""",0.3,120,"""","""","2021-12-31 03:30:02",73.168.250.133,"Mozilla/5.0 (Windows NT 10.0; Win64; x64) AppleWebKit/537.36 (KHTML, like Gecko) Chrome/96.0.4664.110 Safari/537.36",WebKit,Chrome,96.0.4664.110,Windows,10.0,ac0f2dffeffaa78d35a552e03d03f0a8
13,1,"""",test_procedure,confidence_rating,html-slider-response,122,308629,0.0-11.0-0.0-2.6,3SD15I2WEBVYX2RZ7BNPTJHHA9P63F,A13FTIHWW9GE8X,3K772S5NPHCKR9O6IG0RXL6SDXXEH4,N27K4,N27K4,3K772S5NPHCKR9O6IG0RXL6SDXXEH4,3K772S5NPHCKR9O6IG0RXL6SDXXEH4,338054,338054,1,0.03,"""",2028.8000000715256,39,"<div id=""message-div""><p>How confident are you that your clockwise/counter-clockwise response just now was accurate? Please rate your confidence on the slider bar below.</p></div>","""","""","""",50,"""","""","""",39,"2021-12-31 03:30:02",73.168.250.133,"Mozilla/5.0 (Windows NT 10.0; Win64; x64) AppleWebKit/537.36 (KHTML, like Gecko) Chrome/96.0.4664.110 Safari/537.36",WebKit,Chrome,96.0.4664.110,Windows,10.0,ac0f2dffeffaa78d35a552e03d03f0a8
13,1,"""",test_procedure,fixation,html-keyboard-response,123,309133,0.0-11.0-0.0-0.7,3SD15I2WEBVYX2RZ7BNPTJHHA9P63F,A13FTIHWW9GE8X,3K772S5NPHCKR9O6IG0RXL6SDXXEH4,N27K4,N27K4,3K772S5NPHCKR9O6IG0RXL6SDXXEH4,3K772S5NPHCKR9O6IG0RXL6SDXXEH4,338054,338054,1,0.03,"""",null,null,"<div class = fixationbox><div class = fixation>+</div></div>","""","""","""","""","""","""","""","""","2021-12-31 03:30:02",73.168.250.133,"Mozilla/5.0 (Windows NT 10.0; Win64; x64) AppleWebKit/537.36 (KHTML, like Gecko) Chrome/96.0.4664.110 Safari/537.36",WebKit,Chrome,96.0.4664.110,Windows,10.0,ac0f2dffeffaa78d35a552e03d03f0a8
13,1,"""",test_procedure,stim_test,canvas-button-response,124,310223,0.0-11.0-0.0-1.7,3SD15I2WEBVYX2RZ7BNPTJHHA9P63F,A13FTIHWW9GE8X,3K772S5NPHCKR9O6IG0RXL6SDXXEH4,N27K4,N27K4,3K772S5NPHCKR9O6IG0RXL6SDXXEH4,3K772S5NPHCKR9O6IG0RXL6SDXXEH4,338054,338054,1,0.03,"""",1057.2000000476837,0,catchStim8,0,Counter-clockwise,true,"""",0.3,120,0.001,"""","2021-12-31 03:30:02",73.168.250.133,"Mozilla/5.0 (Windows NT 10.0; Win64; x64) AppleWebKit/537.36 (KHTML, like Gecko) Chrome/96.0.4664.110 Safari/537.36",WebKit,Chrome,96.0.4664.110,Windows,10.0,ac0f2dffeffaa78d35a552e03d03f0a8
13,1,"""",test_procedure,confidence_rating,html-slider-response,125,312544,0.0-11.0-0.0-2.7,3SD15I2WEBVYX2RZ7BNPTJHHA9P63F,A13FTIHWW9GE8X,3K772S5NPHCKR9O6IG0RXL6SDXXEH4,N27K4,N27K4,3K772S5NPHCKR9O6IG0RXL6SDXXEH4,3K772S5NPHCKR9O6IG0RXL6SDXXEH4,338054,338054,1,0.03,"""",2319.2999999523163,40,"<div id=""message-div""><p>How confident are you that your clockwise/counter-clockwise response just now was accurate? Please rate your confidence on the slider bar below.</p></div>","""","""","""",50,"""","""","""",40,"2021-12-31 03:30:02",73.168.250.133,"Mozilla/5.0 (Windows NT 10.0; Win64; x64) AppleWebKit/537.36 (KHTML, like Gecko) Chrome/96.0.4664.110 Safari/537.36",WebKit,Chrome,96.0.4664.110,Windows,10.0,ac0f2dffeffaa78d35a552e03d03f0a8
13,1,"""",test_procedure,fixation,html-keyboard-response,126,313044,0.0-11.0-0.0-0.8,3SD15I2WEBVYX2RZ7BNPTJHHA9P63F,A13FTIHWW9GE8X,3K772S5NPHCKR9O6IG0RXL6SDXXEH4,N27K4,N27K4,3K772S5NPHCKR9O6IG0RXL6SDXXEH4,3K772S5NPHCKR9O6IG0RXL6SDXXEH4,338054,338054,1,0.03,"""",null,null,"<div class = fixationbox><div class = fixation>+</div></div>","""","""","""","""","""","""","""","""","2021-12-31 03:30:02",73.168.250.133,"Mozilla/5.0 (Windows NT 10.0; Win64; x64) AppleWebKit/537.36 (KHTML, like Gecko) Chrome/96.0.4664.110 Safari/537.36",WebKit,Chrome,96.0.4664.110,Windows,10.0,ac0f2dffeffaa78d35a552e03d03f0a8
13,1,"""",test_procedure,stim_test,canvas-button-response,127,314309,0.0-11.0-0.0-1.8,3SD15I2WEBVYX2RZ7BNPTJHHA9P63F,A13FTIHWW9GE8X,3K772S5NPHCKR9O6IG0RXL6SDXXEH4,N27K4,N27K4,3K772S5NPHCKR9O6IG0RXL6SDXXEH4,3K772S5NPHCKR9O6IG0RXL6SDXXEH4,338054,338054,1,0.03,"""",1228.6000000238419,1,stim2,0,Counter-clockwise,false,"""",0.01,120,"""","""","2021-12-31 03:30:02",73.168.250.133,"Mozilla/5.0 (Windows NT 10.0; Win64; x64) AppleWebKit/537.36 (KHTML, like Gecko) Chrome/96.0.4664.110 Safari/537.36",WebKit,Chrome,96.0.4664.110,Windows,10.0,ac0f2dffeffaa78d35a552e03d03f0a8
13,1,"""",test_procedure,confidence_rating,html-slider-response,128,316347,0.0-11.0-0.0-2.8,3SD15I2WEBVYX2RZ7BNPTJHHA9P63F,A13FTIHWW9GE8X,3K772S5NPHCKR9O6IG0RXL6SDXXEH4,N27K4,N27K4,3K772S5NPHCKR9O6IG0RXL6SDXXEH4,3K772S5NPHCKR9O6IG0RXL6SDXXEH4,338054,338054,1,0.03,"""",2036.8999999761581,39,"<div id=""message-div""><p>How confident are you that your clockwise/counter-clockwise response just now was accurate? Please rate your confidence on the slider bar below.</p></div>","""","""","""",50,"""","""","""",39,"2021-12-31 03:30:02",73.168.250.133,"Mozilla/5.0 (Windows NT 10.0; Win64; x64) AppleWebKit/537.36 (KHTML, like Gecko) Chrome/96.0.4664.110 Safari/537.36",WebKit,Chrome,96.0.4664.110,Windows,10.0,ac0f2dffeffaa78d35a552e03d03f0a8
13,1,"""",test_procedure,fixation,html-keyboard-response,129,316851,0.0-11.0-0.0-0.9,3SD15I2WEBVYX2RZ7BNPTJHHA9P63F,A13FTIHWW9GE8X,3K772S5NPHCKR9O6IG0RXL6SDXXEH4,N27K4,N27K4,3K772S5NPHCKR9O6IG0RXL6SDXXEH4,3K772S5NPHCKR9O6IG0RXL6SDXXEH4,338054,338054,1,0.03,"""",null,null,"<div class = fixationbox><div class = fixation>+</div></div>","""","""","""","""","""","""","""","""","2021-12-31 03:30:02",73.168.250.133,"Mozilla/5.0 (Windows NT 10.0; Win64; x64) AppleWebKit/537.36 (KHTML, like Gecko) Chrome/96.0.4664.110 Safari/537.36",WebKit,Chrome,96.0.4664.110,Windows,10.0,ac0f2dffeffaa78d35a552e03d03f0a8
13,1,"""",test_procedure,stim_test,canvas-button-response,130,317955,0.0-11.0-0.0-1.9,3SD15I2WEBVYX2RZ7BNPTJHHA9P63F,A13FTIHWW9GE8X,3K772S5NPHCKR9O6IG0RXL6SDXXEH4,N27K4,N27K4,3K772S5NPHCKR9O6IG0RXL6SDXXEH4,3K772S5NPHCKR9O6IG0RXL6SDXXEH4,338054,338054,1,0.03,"""",1071.3000000715256,0,stim1,1,Clockwise,false,"""",0.01,60,"""","""","2021-12-31 03:30:02",73.168.250.133,"Mozilla/5.0 (Windows NT 10.0; Win64; x64) AppleWebKit/537.36 (KHTML, like Gecko) Chrome/96.0.4664.110 Safari/537.36",WebKit,Chrome,96.0.4664.110,Windows,10.0,ac0f2dffeffaa78d35a552e03d03f0a8
13,1,"""",test_procedure,confidence_rating,html-slider-response,131,319925,0.0-11.0-0.0-2.9,3SD15I2WEBVYX2RZ7BNPTJHHA9P63F,A13FTIHWW9GE8X,3K772S5NPHCKR9O6IG0RXL6SDXXEH4,N27K4,N27K4,3K772S5NPHCKR9O6IG0RXL6SDXXEH4,3K772S5NPHCKR9O6IG0RXL6SDXXEH4,338054,338054,1,0.03,"""",1969,35,"<div id=""message-div""><p>How confident are you that your clockwise/counter-clockwise response just now was accurate? Please rate your confidence on the slider bar below.</p></div>","""","""","""",50,"""","""","""",35,"2021-12-31 03:30:02",73.168.250.133,"Mozilla/5.0 (Windows NT 10.0; Win64; x64) AppleWebKit/537.36 (KHTML, like Gecko) Chrome/96.0.4664.110 Safari/537.36",WebKit,Chrome,96.0.4664.110,Windows,10.0,ac0f2dffeffaa78d35a552e03d03f0a8
13,1,"""",test_procedure,fixation,html-keyboard-response,132,320426,0.0-11.0-0.0-0.10,3SD15I2WEBVYX2RZ7BNPTJHHA9P63F,A13FTIHWW9GE8X,3K772S5NPHCKR9O6IG0RXL6SDXXEH4,N27K4,N27K4,3K772S5NPHCKR9O6IG0RXL6SDXXEH4,3K772S5NPHCKR9O6IG0RXL6SDXXEH4,338054,338054,1,0.03,"""",null,null,"<div class = fixationbox><div class = fixation>+</div></div>","""","""","""","""","""","""","""","""","2021-12-31 03:30:02",73.168.250.133,"Mozilla/5.0 (Windows NT 10.0; Win64; x64) AppleWebKit/537.36 (KHTML, like Gecko) Chrome/96.0.4664.110 Safari/537.36",WebKit,Chrome,96.0.4664.110,Windows,10.0,ac0f2dffeffaa78d35a552e03d03f0a8
13,1,"""",test_procedure,stim_test,canvas-button-response,133,321792,0.0-11.0-0.0-1.10,3SD15I2WEBVYX2RZ7BNPTJHHA9P63F,A13FTIHWW9GE8X,3K772S5NPHCKR9O6IG0RXL6SDXXEH4,N27K4,N27K4,3K772S5NPHCKR9O6IG0RXL6SDXXEH4,3K772S5NPHCKR9O6IG0RXL6SDXXEH4,338054,338054,1,0.03,"""",1328.3999999761581,0,catchStim6,0,Counter-clockwise,true,"""",0.3,120,0.6,"""","2021-12-31 03:30:02",73.168.250.133,"Mozilla/5.0 (Windows NT 10.0; Win64; x64) AppleWebKit/537.36 (KHTML, like Gecko) Chrome/96.0.4664.110 Safari/537.36",WebKit,Chrome,96.0.4664.110,Windows,10.0,ac0f2dffeffaa78d35a552e03d03f0a8
13,1,"""",test_procedure,confidence_rating,html-slider-response,134,323761,0.0-11.0-0.0-2.10,3SD15I2WEBVYX2RZ7BNPTJHHA9P63F,A13FTIHWW9GE8X,3K772S5NPHCKR9O6IG0RXL6SDXXEH4,N27K4,N27K4,3K772S5NPHCKR9O6IG0RXL6SDXXEH4,3K772S5NPHCKR9O6IG0RXL6SDXXEH4,338054,338054,1,0.03,"""",1968.9000000953674,42,"<div id=""message-div""><p>How confident are you that your clockwise/counter-clockwise response just now was accurate? Please rate your confidence on the slider bar below.</p></div>","""","""","""",50,"""","""","""",42,"2021-12-31 03:30:02",73.168.250.133,"Mozilla/5.0 (Windows NT 10.0; Win64; x64) AppleWebKit/537.36 (KHTML, like Gecko) Chrome/96.0.4664.110 Safari/537.36",WebKit,Chrome,96.0.4664.110,Windows,10.0,ac0f2dffeffaa78d35a552e03d03f0a8
13,1,"""",test_procedure,fixation,html-keyboard-response,135,324266,0.0-11.0-0.0-0.11,3SD15I2WEBVYX2RZ7BNPTJHHA9P63F,A13FTIHWW9GE8X,3K772S5NPHCKR9O6IG0RXL6SDXXEH4,N27K4,N27K4,3K772S5NPHCKR9O6IG0RXL6SDXXEH4,3K772S5NPHCKR9O6IG0RXL6SDXXEH4,338054,338054,1,0.03,"""",null,null,"<div class = fixationbox><div class = fixation>+</div></div>","""","""","""","""","""","""","""","""","2021-12-31 03:30:02",73.168.250.133,"Mozilla/5.0 (Windows NT 10.0; Win64; x64) AppleWebKit/537.36 (KHTML, like Gecko) Chrome/96.0.4664.110 Safari/537.36",WebKit,Chrome,96.0.4664.110,Windows,10.0,ac0f2dffeffaa78d35a552e03d03f0a8
13,1,"""",test_procedure,stim_test,canvas-button-response,136,325533,0.0-11.0-0.0-1.11,3SD15I2WEBVYX2RZ7BNPTJHHA9P63F,A13FTIHWW9GE8X,3K772S5NPHCKR9O6IG0RXL6SDXXEH4,N27K4,N27K4,3K772S5NPHCKR9O6IG0RXL6SDXXEH4,3K772S5NPHCKR9O6IG0RXL6SDXXEH4,338054,338054,1,0.03,"""",1233.1000000238419,1,stim3,1,Clockwise,true,"""",0.3,60,"""","""","2021-12-31 03:30:02",73.168.250.133,"Mozilla/5.0 (Windows NT 10.0; Win64; x64) AppleWebKit/537.36 (KHTML, like Gecko) Chrome/96.0.4664.110 Safari/537.36",WebKit,Chrome,96.0.4664.110,Windows,10.0,ac0f2dffeffaa78d35a552e03d03f0a8
13,1,"""",test_procedure,confidence_rating,html-slider-response,137,327705,0.0-11.0-0.0-2.11,3SD15I2WEBVYX2RZ7BNPTJHHA9P63F,A13FTIHWW9GE8X,3K772S5NPHCKR9O6IG0RXL6SDXXEH4,N27K4,N27K4,3K772S5NPHCKR9O6IG0RXL6SDXXEH4,3K772S5NPHCKR9O6IG0RXL6SDXXEH4,338054,338054,1,0.03,"""",2170.899999976158,34,"<div id=""message-div""><p>How confident are you that your clockwise/counter-clockwise response just now was accurate? Please rate your confidence on the slider bar below.</p></div>","""","""","""",50,"""","""","""",34,"2021-12-31 03:30:02",73.168.250.133,"Mozilla/5.0 (Windows NT 10.0; Win64; x64) AppleWebKit/537.36 (KHTML, like Gecko) Chrome/96.0.4664.110 Safari/537.36",WebKit,Chrome,96.0.4664.110,Windows,10.0,ac0f2dffeffaa78d35a552e03d03f0a8
13,1,"""",test_procedure,fixation,html-keyboard-response,138,328207,0.0-11.0-0.0-0.12,3SD15I2WEBVYX2RZ7BNPTJHHA9P63F,A13FTIHWW9GE8X,3K772S5NPHCKR9O6IG0RXL6SDXXEH4,N27K4,N27K4,3K772S5NPHCKR9O6IG0RXL6SDXXEH4,3K772S5NPHCKR9O6IG0RXL6SDXXEH4,338054,338054,1,0.03,"""",null,null,"<div class = fixationbox><div class = fixation>+</div></div>","""","""","""","""","""","""","""","""","2021-12-31 03:30:02",73.168.250.133,"Mozilla/5.0 (Windows NT 10.0; Win64; x64) AppleWebKit/537.36 (KHTML, like Gecko) Chrome/96.0.4664.110 Safari/537.36",WebKit,Chrome,96.0.4664.110,Windows,10.0,ac0f2dffeffaa78d35a552e03d03f0a8
13,1,"""",test_procedure,stim_test,canvas-button-response,139,329495,0.0-11.0-0.0-1.12,3SD15I2WEBVYX2RZ7BNPTJHHA9P63F,A13FTIHWW9GE8X,3K772S5NPHCKR9O6IG0RXL6SDXXEH4,N27K4,N27K4,3K772S5NPHCKR9O6IG0RXL6SDXXEH4,3K772S5NPHCKR9O6IG0RXL6SDXXEH4,338054,338054,1,0.03,"""",1249,0,catchStim2,0,Counter-clockwise,true,"""",0.01,120,0.6,"""","2021-12-31 03:30:02",73.168.250.133,"Mozilla/5.0 (Windows NT 10.0; Win64; x64) AppleWebKit/537.36 (KHTML, like Gecko) Chrome/96.0.4664.110 Safari/537.36",WebKit,Chrome,96.0.4664.110,Windows,10.0,ac0f2dffeffaa78d35a552e03d03f0a8
13,1,"""",test_procedure,confidence_rating,html-slider-response,140,331691,0.0-11.0-0.0-2.12,3SD15I2WEBVYX2RZ7BNPTJHHA9P63F,A13FTIHWW9GE8X,3K772S5NPHCKR9O6IG0RXL6SDXXEH4,N27K4,N27K4,3K772S5NPHCKR9O6IG0RXL6SDXXEH4,3K772S5NPHCKR9O6IG0RXL6SDXXEH4,338054,338054,1,0.03,"""",2195.3000000715256,36,"<div id=""message-div""><p>How confident are you that your clockwise/counter-clockwise response just now was accurate? Please rate your confidence on the slider bar below.</p></div>","""","""","""",50,"""","""","""",36,"2021-12-31 03:30:02",73.168.250.133,"Mozilla/5.0 (Windows NT 10.0; Win64; x64) AppleWebKit/537.36 (KHTML, like Gecko) Chrome/96.0.4664.110 Safari/537.36",WebKit,Chrome,96.0.4664.110,Windows,10.0,ac0f2dffeffaa78d35a552e03d03f0a8
13,1,"""",test_procedure,fixation,html-keyboard-response,141,332196,0.0-11.0-0.0-0.13,3SD15I2WEBVYX2RZ7BNPTJHHA9P63F,A13FTIHWW9GE8X,3K772S5NPHCKR9O6IG0RXL6SDXXEH4,N27K4,N27K4,3K772S5NPHCKR9O6IG0RXL6SDXXEH4,3K772S5NPHCKR9O6IG0RXL6SDXXEH4,338054,338054,1,0.03,"""",null,null,"<div class = fixationbox><div class = fixation>+</div></div>","""","""","""","""","""","""","""","""","2021-12-31 03:30:02",73.168.250.133,"Mozilla/5.0 (Windows NT 10.0; Win64; x64) AppleWebKit/537.36 (KHTML, like Gecko) Chrome/96.0.4664.110 Safari/537.36",WebKit,Chrome,96.0.4664.110,Windows,10.0,ac0f2dffeffaa78d35a552e03d03f0a8
13,1,"""",test_procedure,stim_test,canvas-button-response,142,333839,0.0-11.0-0.0-1.13,3SD15I2WEBVYX2RZ7BNPTJHHA9P63F,A13FTIHWW9GE8X,3K772S5NPHCKR9O6IG0RXL6SDXXEH4,N27K4,N27K4,3K772S5NPHCKR9O6IG0RXL6SDXXEH4,3K772S5NPHCKR9O6IG0RXL6SDXXEH4,338054,338054,1,0.03,"""",1603.8000000715256,1,stim3,1,Clockwise,true,"""",0.3,60,"""","""","2021-12-31 03:30:02",73.168.250.133,"Mozilla/5.0 (Windows NT 10.0; Win64; x64) AppleWebKit/537.36 (KHTML, like Gecko) Chrome/96.0.4664.110 Safari/537.36",WebKit,Chrome,96.0.4664.110,Windows,10.0,ac0f2dffeffaa78d35a552e03d03f0a8
13,1,"""",test_procedure,confidence_rating,html-slider-response,143,335989,0.0-11.0-0.0-2.13,3SD15I2WEBVYX2RZ7BNPTJHHA9P63F,A13FTIHWW9GE8X,3K772S5NPHCKR9O6IG0RXL6SDXXEH4,N27K4,N27K4,3K772S5NPHCKR9O6IG0RXL6SDXXEH4,3K772S5NPHCKR9O6IG0RXL6SDXXEH4,338054,338054,1,0.03,"""",2148.6999999284744,31,"<div id=""message-div""><p>How confident are you that your clockwise/counter-clockwise response just now was accurate? Please rate your confidence on the slider bar below.</p></div>","""","""","""",50,"""","""","""",31,"2021-12-31 03:30:02",73.168.250.133,"Mozilla/5.0 (Windows NT 10.0; Win64; x64) AppleWebKit/537.36 (KHTML, like Gecko) Chrome/96.0.4664.110 Safari/537.36",WebKit,Chrome,96.0.4664.110,Windows,10.0,ac0f2dffeffaa78d35a552e03d03f0a8
13,1,"""",test_procedure,fixation,html-keyboard-response,144,336490,0.0-11.0-0.0-0.14,3SD15I2WEBVYX2RZ7BNPTJHHA9P63F,A13FTIHWW9GE8X,3K772S5NPHCKR9O6IG0RXL6SDXXEH4,N27K4,N27K4,3K772S5NPHCKR9O6IG0RXL6SDXXEH4,3K772S5NPHCKR9O6IG0RXL6SDXXEH4,338054,338054,1,0.03,"""",null,null,"<div class = fixationbox><div class = fixation>+</div></div>","""","""","""","""","""","""","""","""","2021-12-31 03:30:02",73.168.250.133,"Mozilla/5.0 (Windows NT 10.0; Win64; x64) AppleWebKit/537.36 (KHTML, like Gecko) Chrome/96.0.4664.110 Safari/537.36",WebKit,Chrome,96.0.4664.110,Windows,10.0,ac0f2dffeffaa78d35a552e03d03f0a8
13,1,"""",test_procedure,stim_test,canvas-button-response,145,337519,0.0-11.0-0.0-1.14,3SD15I2WEBVYX2RZ7BNPTJHHA9P63F,A13FTIHWW9GE8X,3K772S5NPHCKR9O6IG0RXL6SDXXEH4,N27K4,N27K4,3K772S5NPHCKR9O6IG0RXL6SDXXEH4,3K772S5NPHCKR9O6IG0RXL6SDXXEH4,338054,338054,1,0.03,"""",994,0,catchStim3,1,Clockwise,false,"""",0.01,60,0.001,"""","2021-12-31 03:30:02",73.168.250.133,"Mozilla/5.0 (Windows NT 10.0; Win64; x64) AppleWebKit/537.36 (KHTML, like Gecko) Chrome/96.0.4664.110 Safari/537.36",WebKit,Chrome,96.0.4664.110,Windows,10.0,ac0f2dffeffaa78d35a552e03d03f0a8
13,1,"""",test_procedure,confidence_rating,html-slider-response,146,339644,0.0-11.0-0.0-2.14,3SD15I2WEBVYX2RZ7BNPTJHHA9P63F,A13FTIHWW9GE8X,3K772S5NPHCKR9O6IG0RXL6SDXXEH4,N27K4,N27K4,3K772S5NPHCKR9O6IG0RXL6SDXXEH4,3K772S5NPHCKR9O6IG0RXL6SDXXEH4,338054,338054,1,0.03,"""",2123,38,"<div id=""message-div""><p>How confident are you that your clockwise/counter-clockwise response just now was accurate? Please rate your confidence on the slider bar below.</p></div>","""","""","""",50,"""","""","""",38,"2021-12-31 03:30:02",73.168.250.133,"Mozilla/5.0 (Windows NT 10.0; Win64; x64) AppleWebKit/537.36 (KHTML, like Gecko) Chrome/96.0.4664.110 Safari/537.36",WebKit,Chrome,96.0.4664.110,Windows,10.0,ac0f2dffeffaa78d35a552e03d03f0a8
13,1,"""",test_procedure,fixation,html-keyboard-response,147,340148,0.0-11.0-0.0-0.15,3SD15I2WEBVYX2RZ7BNPTJHHA9P63F,A13FTIHWW9GE8X,3K772S5NPHCKR9O6IG0RXL6SDXXEH4,N27K4,N27K4,3K772S5NPHCKR9O6IG0RXL6SDXXEH4,3K772S5NPHCKR9O6IG0RXL6SDXXEH4,338054,338054,1,0.03,"""",null,null,"<div class = fixationbox><div class = fixation>+</div></div>","""","""","""","""","""","""","""","""","2021-12-31 03:30:02",73.168.250.133,"Mozilla/5.0 (Windows NT 10.0; Win64; x64) AppleWebKit/537.36 (KHTML, like Gecko) Chrome/96.0.4664.110 Safari/537.36",WebKit,Chrome,96.0.4664.110,Windows,10.0,ac0f2dffeffaa78d35a552e03d03f0a8
13,1,"""",test_procedure,stim_test,canvas-button-response,148,341550,0.0-11.0-0.0-1.15,3SD15I2WEBVYX2RZ7BNPTJHHA9P63F,A13FTIHWW9GE8X,3K772S5NPHCKR9O6IG0RXL6SDXXEH4,N27K4,N27K4,3K772S5NPHCKR9O6IG0RXL6SDXXEH4,3K772S5NPHCKR9O6IG0RXL6SDXXEH4,338054,338054,1,0.03,"""",1366.1000000238419,1,stim4,0,Counter-clockwise,false,"""",0.3,120,"""","""","2021-12-31 03:30:02",73.168.250.133,"Mozilla/5.0 (Windows NT 10.0; Win64; x64) AppleWebKit/537.36 (KHTML, like Gecko) Chrome/96.0.4664.110 Safari/537.36",WebKit,Chrome,96.0.4664.110,Windows,10.0,ac0f2dffeffaa78d35a552e03d03f0a8
13,1,"""",test_procedure,confidence_rating,html-slider-response,149,343660,0.0-11.0-0.0-2.15,3SD15I2WEBVYX2RZ7BNPTJHHA9P63F,A13FTIHWW9GE8X,3K772S5NPHCKR9O6IG0RXL6SDXXEH4,N27K4,N27K4,3K772S5NPHCKR9O6IG0RXL6SDXXEH4,3K772S5NPHCKR9O6IG0RXL6SDXXEH4,338054,338054,1,0.03,"""",2109.1999999284744,32,"<div id=""message-div""><p>How confident are you that your clockwise/counter-clockwise response just now was accurate? Please rate your confidence on the slider bar below.</p></div>","""","""","""",50,"""","""","""",32,"2021-12-31 03:30:02",73.168.250.133,"Mozilla/5.0 (Windows NT 10.0; Win64; x64) AppleWebKit/537.36 (KHTML, like Gecko) Chrome/96.0.4664.110 Safari/537.36",WebKit,Chrome,96.0.4664.110,Windows,10.0,ac0f2dffeffaa78d35a552e03d03f0a8
13,1,"""",test_procedure,fixation,html-keyboard-response,150,344163,0.0-11.0-0.0-0.16,3SD15I2WEBVYX2RZ7BNPTJHHA9P63F,A13FTIHWW9GE8X,3K772S5NPHCKR9O6IG0RXL6SDXXEH4,N27K4,N27K4,3K772S5NPHCKR9O6IG0RXL6SDXXEH4,3K772S5NPHCKR9O6IG0RXL6SDXXEH4,338054,338054,1,0.03,"""",null,null,"<div class = fixationbox><div class = fixation>+</div></div>","""","""","""","""","""","""","""","""","2021-12-31 03:30:02",73.168.250.133,"Mozilla/5.0 (Windows NT 10.0; Win64; x64) AppleWebKit/537.36 (KHTML, like Gecko) Chrome/96.0.4664.110 Safari/537.36",WebKit,Chrome,96.0.4664.110,Windows,10.0,ac0f2dffeffaa78d35a552e03d03f0a8
13,1,"""",test_procedure,stim_test,canvas-button-response,151,345528,0.0-11.0-0.0-1.16,3SD15I2WEBVYX2RZ7BNPTJHHA9P63F,A13FTIHWW9GE8X,3K772S5NPHCKR9O6IG0RXL6SDXXEH4,N27K4,N27K4,3K772S5NPHCKR9O6IG0RXL6SDXXEH4,3K772S5NPHCKR9O6IG0RXL6SDXXEH4,338054,338054,1,0.03,"""",1326.1000000238419,1,catchStim5,1,Clockwise,true,"""",0.3,60,0.6,"""","2021-12-31 03:30:02",73.168.250.133,"Mozilla/5.0 (Windows NT 10.0; Win64; x64) AppleWebKit/537.36 (KHTML, like Gecko) Chrome/96.0.4664.110 Safari/537.36",WebKit,Chrome,96.0.4664.110,Windows,10.0,ac0f2dffeffaa78d35a552e03d03f0a8
13,1,"""",test_procedure,confidence_rating,html-slider-response,152,347850,0.0-11.0-0.0-2.16,3SD15I2WEBVYX2RZ7BNPTJHHA9P63F,A13FTIHWW9GE8X,3K772S5NPHCKR9O6IG0RXL6SDXXEH4,N27K4,N27K4,3K772S5NPHCKR9O6IG0RXL6SDXXEH4,3K772S5NPHCKR9O6IG0RXL6SDXXEH4,338054,338054,1,0.03,"""",2321.100000023842,39,"<div id=""message-div""><p>How confident are you that your clockwise/counter-clockwise response just now was accurate? Please rate your confidence on the slider bar below.</p></div>","""","""","""",50,"""","""","""",39,"2021-12-31 03:30:02",73.168.250.133,"Mozilla/5.0 (Windows NT 10.0; Win64; x64) AppleWebKit/537.36 (KHTML, like Gecko) Chrome/96.0.4664.110 Safari/537.36",WebKit,Chrome,96.0.4664.110,Windows,10.0,ac0f2dffeffaa78d35a552e03d03f0a8
13,1,"""",test_procedure,fixation,html-keyboard-response,153,348354,0.0-11.0-0.0-0.17,3SD15I2WEBVYX2RZ7BNPTJHHA9P63F,A13FTIHWW9GE8X,3K772S5NPHCKR9O6IG0RXL6SDXXEH4,N27K4,N27K4,3K772S5NPHCKR9O6IG0RXL6SDXXEH4,3K772S5NPHCKR9O6IG0RXL6SDXXEH4,338054,338054,1,0.03,"""",null,null,"<div class = fixationbox><div class = fixation>+</div></div>","""","""","""","""","""","""","""","""","2021-12-31 03:30:02",73.168.250.133,"Mozilla/5.0 (Windows NT 10.0; Win64; x64) AppleWebKit/537.36 (KHTML, like Gecko) Chrome/96.0.4664.110 Safari/537.36",WebKit,Chrome,96.0.4664.110,Windows,10.0,ac0f2dffeffaa78d35a552e03d03f0a8
13,1,"""",test_procedure,stim_test,canvas-button-response,154,349394,0.0-11.0-0.0-1.17,3SD15I2WEBVYX2RZ7BNPTJHHA9P63F,A13FTIHWW9GE8X,3K772S5NPHCKR9O6IG0RXL6SDXXEH4,N27K4,N27K4,3K772S5NPHCKR9O6IG0RXL6SDXXEH4,3K772S5NPHCKR9O6IG0RXL6SDXXEH4,338054,338054,1,0.03,"""",1005,0,stim3,1,Clockwise,false,"""",0.3,60,"""","""","2021-12-31 03:30:02",73.168.250.133,"Mozilla/5.0 (Windows NT 10.0; Win64; x64) AppleWebKit/537.36 (KHTML, like Gecko) Chrome/96.0.4664.110 Safari/537.36",WebKit,Chrome,96.0.4664.110,Windows,10.0,ac0f2dffeffaa78d35a552e03d03f0a8
